File: data/xrd/xy/1,4_Benzene_Diammonium_Iodide.lbl_rescaled.xy
# Processed xy data with Haverford two-theta converted to LBL scale
two_theta,intensity
5.81234,5.0
5.8821,7.0
5.95186,6.0
6.02163,5.0
6.0914,3.0
6.16116,4.0
6.23093,7.0
6.3007,6.0
6.37046,4.0
6.44023,7.0
6.51,5.0
6.57977,7.0
6.64954,7.0
6.71931,6.0
6.78908,6.0
6.85886,3.0
6.92863,4.0
6.9984,5.0
7.06818,5.0
7.13795,4.0
7.20773,2.0
7.27751,6.0
7.34728,7.0
7.41706,4.0
7.48684,6.0
7.55662,3.0
7.6264,6.0
7.69618,5.0
7.76596,3.0
7.83574,4.0
7.90553,3.0
7.97531,7.0
8.0451,7.0
8.11488,4.0
8.18467,4.0
8.25445,5.0
8.32424,5.0
8.39403,5.0
8.46382,6.0
8.53361,4.0
8.6034,6.0
8.67319,4.0
8.74299,6.0
8.81278,4.0
8.88257,8.0
8.95237,4.0
9.02217,4.0
9.09196,6.0
9.16176,5.0
9.23156,6.0
9.30136,4.0
9.37116,6.0
9.44096,4.0
9.51076,4.0
9.58057,5.0
9.65037,8.0
9.72018,3.0
9.78998,6.0
9.85979,9.0
9.9296,5.0
9.99941,7.0
10.0692,4.0
10.139,5.0
10.2088,8.0
10.2787,4.0
10.3485,11.0
10.4183,10.0
10.4881,24.0
10.5579,31.0
10.6277,31.0
10.6976,29.0
10.7674,40.0
10.8372,15.0
10.907,8.0
10.9768,3.0
11.0467,5.0
11.1165,5.0
11.1863,3.0
11.2561,6.0
11.326,3.0
11.3958,4.0
11.4656,4.0
11.5355,4.0
11.6053,2.0
11.6751,4.0
11.745,6.0
11.8148,6.0
11.8846,3.0
11.9545,3.0
12.0243,2.0
12.0942,3.0
12.164,3.0
12.2338,4.0
12.3037,4.0
12.3735,2.0
12.4434,2.0
12.5132,2.0
12.5831,3.0
12.6529,6.0
12.7228,3.0
12.7926,5.0
12.8625,1.0
12.9324,2.0
13.0022,6.0
13.0721,3.0
13.1419,7.0
13.2118,3.0
13.2817,7.0
13.3515,4.0
13.4214,2.0
13.4912,4.0
13.5611,3.0
13.631,3.0
13.7009,4.0
13.7707,3.0
13.8406,5.0
13.9105,7.0
13.9803,4.0
14.0502,9.0
14.1201,4.0
14.19,7.0
14.2599,6.0
14.3297,4.0
14.3996,6.0
14.4695,8.0
14.5394,0.0
14.6093,5.0
14.6792,5.0
14.7491,2.0
14.819,5.0
14.8889,4.0
14.9588,2.0
15.0287,5.0
15.0985,5.0
15.1684,5.0
15.2384,5.0
15.3083,1.0
15.3782,4.0
15.4481,4.0
15.518,6.0
15.5879,5.0
15.6578,2.0
15.7277,2.0
15.7976,5.0
15.8675,3.0
15.9374,6.0
16.0074,7.0
16.0773,5.0
16.1472,5.0
16.2171,7.0
16.2871,0.0
16.357,2.0
16.4269,4.0
16.4968,3.0
16.5668,2.0
16.6367,5.0
16.7066,3.0
16.7766,7.0
16.8465,1.0
16.9165,3.0
16.9864,4.0
17.0563,3.0
17.1263,3.0
17.1962,5.0
17.2662,1.0
17.3361,3.0
17.4061,0.0
17.476,3.0
17.546,1.0
17.6159,4.0
17.6859,3.0
17.7559,6.0
17.8258,3.0
17.8958,2.0
17.9658,3.0
18.0357,4.0
18.1057,2.0
18.1757,4.0
18.2456,2.0
18.3156,1.0
18.3856,4.0
18.4556,1.0
18.5255,1.0
18.5955,2.0
18.6655,5.0
18.7355,4.0
18.8055,3.0
18.8755,5.0
18.9455,2.0
19.0155,3.0
19.0854,1.0
19.1554,2.0
19.2254,3.0
19.2954,1.0
19.3654,4.0
19.4354,4.0
19.5055,6.0
19.5755,2.0
19.6455,1.0
19.7155,5.0
19.7855,4.0
19.8555,3.0
19.9255,2.0
19.9956,4.0
20.0656,3.0
20.1356,5.0
20.2056,4.0
20.2757,2.0
20.3457,6.0
20.4157,2.0
20.4858,4.0
20.5558,4.0
20.6258,3.0
20.6959,5.0
20.7659,6.0
20.836,2.0
20.906,3.0
20.9761,8.0
21.0461,11.0
21.1162,20.0
21.1862,11.0
21.2563,15.0
21.3263,20.0
21.3964,24.0
21.4665,11.0
21.5365,4.0
21.6066,4.0
21.6767,0.0
21.7467,1.0
21.8168,1.0
21.8869,3.0
21.957,1.0
22.027,2.0
22.0971,5.0
22.1672,4.0
22.2373,2.0
22.3074,5.0
22.3775,3.0
22.4476,6.0
22.5177,6.0
22.5878,5.0
22.6579,3.0
22.728,1.0
22.7981,0.0
22.8682,4.0
22.9383,4.0
23.0084,2.0
23.0785,5.0
23.1487,7.0
23.2188,5.0
23.2889,3.0
23.359,2.0
23.4292,5.0
23.4993,3.0
23.5694,6.0
23.6395,3.0
23.7097,5.0
23.7798,5.0
23.85,1.0
23.9201,1.0
23.9903,7.0
24.0604,1.0
24.1306,2.0
24.2007,6.0
24.2709,3.0
24.341,2.0
24.4112,5.0
24.4814,2.0
24.5515,1.0
24.6217,3.0
24.6919,4.0
24.762,6.0
24.8322,5.0
24.9024,6.0
24.9726,4.0
25.0428,5.0
25.1129,7.0
25.1831,4.0
25.2533,3.0
25.3235,4.0
25.3937,4.0
25.4639,2.0
25.5341,1.0
25.6043,3.0
25.6745,13.0
25.7447,12.0
25.815,26.0
25.8852,52.0
25.9554,92.0
26.0256,137.0
26.0958,160.0
26.1661,117.0
26.2363,47.0
26.3065,17.0
26.3768,7.0
26.447,4.0
26.5172,6.0
26.5875,3.0
26.6577,4.0
26.728,2.0
26.7982,5.0
26.8685,3.0
26.9387,5.0
27.009,6.0
27.0793,2.0
27.1495,5.0
27.2198,4.0
27.2901,6.0
27.3603,2.0
27.4306,4.0
27.5009,1.0
27.5712,4.0
27.6415,3.0
27.7117,8.0
27.782,5.0
27.8523,4.0
27.9226,7.0
27.9929,5.0
28.0632,4.0
28.1335,0.0
28.2038,4.0
28.2742,6.0
28.3445,3.0
28.4148,2.0
28.4851,4.0
28.5554,5.0
28.6258,1.0
28.6961,6.0
28.7664,4.0
28.8368,7.0
28.9071,12.0
28.9774,15.0
29.0478,32.0
29.1181,78.0
29.1885,94.0
29.2588,102.0
29.3292,79.0
29.3995,51.0
29.4699,12.0
29.5403,13.0
29.6106,8.0
29.681,8.0
29.7514,6.0
29.8218,5.0
29.8921,1.0
29.9625,3.0
30.0329,5.0
30.1033,4.0
30.1737,5.0
30.2441,3.0
30.3145,3.0
30.3849,4.0
30.4553,3.0
30.5257,1.0
30.5961,3.0
30.6666,9.0
30.737,4.0
30.8074,5.0
30.8778,12.0
30.9482,9.0
31.0187,22.0
31.0891,36.0
31.1596,43.0
31.23,24.0
31.3004,16.0
31.3709,6.0
31.4413,2.0
31.5118,3.0
31.5823,4.0
31.6527,3.0
31.7232,10.0
31.7937,14.0
31.8641,39.0
31.9346,48.0
32.0051,55.0
32.0756,64.0
32.1461,57.0
32.2166,26.0
32.287,8.0
32.3575,6.0
32.428,5.0
32.4985,5.0
32.5691,7.0
32.6396,5.0
32.7101,5.0
32.7806,4.0
32.8511,5.0
32.9216,4.0
32.9922,4.0
33.0627,7.0
33.1332,3.0
33.2038,5.0
33.2743,6.0
33.3449,2.0
33.4154,9.0
33.486,5.0
33.5565,19.0
33.6271,44.0
33.6977,52.0
33.7682,56.0
33.8388,55.0
33.9094,33.0
33.9799,15.0
34.0505,8.0
34.1211,4.0
34.1917,1.0
34.2623,5.0
34.3329,4.0
34.4035,5.0
34.4741,3.0
34.5447,4.0
34.6153,3.0
34.6859,4.0
34.7566,0.0
34.8272,4.0
34.8978,6.0
34.9684,3.0
35.0391,5.0
35.1097,3.0
35.1804,3.0
35.251,4.0
35.3217,2.0
35.3923,2.0
35.463,1.0
35.5336,2.0
35.6043,5.0
35.675,1.0
35.7457,2.0
35.8163,3.0
35.887,1.0
35.9577,3.0
36.0284,4.0
36.0991,4.0
36.1698,13.0
36.2405,16.0
36.3112,22.0
36.3819,22.0
36.4526,11.0
36.5233,5.0
36.594,7.0
36.6648,3.0
36.7355,1.0
36.8062,3.0
36.877,6.0
36.9477,2.0
37.0185,4.0
37.0892,3.0
37.16,2.0
37.2307,1.0
37.3015,1.0
37.3723,1.0
37.443,4.0
37.5138,2.0
37.5846,3.0
37.6554,3.0
37.7262,2.0
37.7969,3.0
37.8677,1.0
37.9385,3.0
38.0094,1.0
38.0802,3.0
38.151,4.0
38.2218,1.0
38.2926,0.0
38.3634,4.0
38.4343,3.0
38.5051,0.0
38.5759,6.0
38.6468,4.0
38.7176,0.0
38.7885,1.0
38.8593,2.0
38.9302,2.0
39.0011,4.0
39.0719,3.0
39.1428,2.0
39.2137,2.0
39.2846,2.0
39.3555,3.0
39.4264,3.0
39.4972,5.0
39.5681,5.0
39.6391,4.0
39.71,2.0
39.7809,1.0
39.8518,2.0
39.9227,4.0
39.9936,2.0
40.0646,2.0
40.1355,2.0
40.2065,4.0
40.2774,3.0
40.3484,3.0
40.4193,1.0
40.4903,6.0
40.5612,2.0
40.6322,4.0
40.7032,3.0
40.7742,1.0
40.8451,4.0
40.9161,2.0
40.9871,5.0
41.0581,2.0
41.1291,3.0
41.2001,4.0
41.2711,5.0
41.3421,4.0
41.4132,7.0
41.4842,11.0
41.5552,65.0
41.6263,61.0
41.6973,60.0
41.7683,39.0
41.8394,27.0
41.9104,17.0
41.9815,5.0
42.0526,6.0
42.1236,4.0
42.1947,5.0
42.2658,6.0
42.3369,5.0
42.408,3.0
42.4791,6.0
42.5502,3.0
42.6213,3.0
42.6924,3.0
42.7635,2.0
42.8346,8.0
42.9057,20.0
42.9768,23.0
43.048,40.0
43.1191,51.0
43.1903,40.0
43.2614,23.0
43.3326,15.0
43.4037,9.0
43.4749,10.0
43.5461,15.0
43.6172,27.0
43.6884,41.0
43.7596,106.0
43.8308,135.0
43.902,131.0
43.9732,64.0
44.0444,23.0
44.1156,11.0
44.1868,5.0
44.258,4.0
44.3292,2.0
44.4005,1.0
44.4717,7.0
44.543,4.0
44.6142,4.0
44.6855,1.0
44.7567,2.0
44.828,7.0
44.8992,3.0
44.9705,1.0
45.0418,3.0
45.1131,3.0
45.1844,5.0
45.2557,4.0
45.327,2.0
45.3983,3.0
45.4696,4.0
45.5409,1.0
45.6122,0.0
45.6835,2.0
45.7549,2.0
45.8262,2.0
45.8975,2.0
45.9689,1.0
46.0403,3.0
46.1116,2.0
46.183,3.0
46.2543,4.0
46.3257,2.0
46.3971,1.0
46.4685,2.0
46.5399,3.0
46.6113,3.0
46.6827,0.0
46.7541,4.0
46.8255,4.0
46.8969,4.0
46.9684,5.0
47.0398,11.0
47.1112,20.0
47.1827,24.0
47.2541,21.0
47.3256,15.0
47.3971,7.0
47.4685,10.0
47.54,2.0
47.6115,3.0
47.683,3.0
47.7544,2.0
47.8259,1.0
47.8974,1.0
47.969,2.0
48.0405,2.0
48.112,5.0
48.1835,2.0
48.255,3.0
48.3266,2.0
48.3981,2.0
48.4697,5.0
48.5412,3.0
48.6128,2.0
48.6844,5.0
48.7559,2.0
48.8275,4.0
48.8991,3.0
48.9707,5.0
49.0423,4.0
49.1139,2.0
49.1855,3.0
49.2571,5.0
49.3287,5.0
49.4004,4.0
49.472,6.0
49.5436,11.0
49.6153,25.0
49.6869,52.0
49.7586,51.0
49.8303,72.0
49.9019,61.0
49.9736,37.0
50.0453,18.0
50.117,10.0
50.1887,5.0
50.2604,3.0
50.3321,2.0
50.4038,4.0
50.4755,4.0
50.5473,3.0
50.619,2.0
50.6907,4.0
50.7625,2.0
50.8342,2.0
50.906,2.0
50.9778,3.0
51.0495,2.0
51.1213,2.0
51.1931,2.0
51.2649,1.0
51.3367,3.0
51.4085,4.0
51.4803,3.0
51.5521,4.0
51.624,5.0
51.6958,2.0
51.7676,0.0
51.8395,3.0
51.9113,3.0
51.9832,3.0
52.0551,4.0
52.1269,2.0
52.1988,4.0
52.2707,1.0
52.3426,3.0
52.4145,3.0
52.4864,5.0
52.5583,6.0
52.6302,10.0
52.7021,22.0
52.7741,42.0
52.846,25.0
52.918,28.0
52.9899,13.0
53.0619,9.0
53.1338,9.0
53.2058,13.0
53.2778,26.0
53.3498,44.0
53.4218,62.0
53.4938,51.0
53.5658,25.0
53.6378,15.0
53.7098,8.0
53.7818,5.0
53.8539,2.0
53.9259,7.0
53.998,7.0
54.07,6.0
54.1421,1.0
54.2142,5.0
54.2862,5.0
54.3583,9.0
54.4304,19.0
54.5025,22.0
54.5746,33.0
54.6467,53.0
54.7189,43.0
54.791,32.0
54.8631,19.0
54.9353,3.0
55.0074,4.0
55.0796,5.0
55.1518,6.0
55.2239,6.0
55.2961,6.0
55.3683,4.0
55.4405,3.0
55.5127,3.0
55.5849,2.0
55.6571,5.0
55.7293,5.0
55.8016,4.0
55.8738,1.0
55.9461,3.0
56.0183,6.0
56.0906,4.0
56.1628,2.0
56.2351,7.0
56.3074,4.0
56.3797,2.0
56.452,2.0
56.5243,1.0
56.5966,2.0
56.6689,2.0
56.7413,2.0
56.8136,2.0
56.886,1.0
56.9583,3.0
57.0307,2.0
57.103,3.0
57.1754,3.0
57.2478,3.0
57.3202,5.0
57.3926,2.0
57.465,3.0
57.5374,0.0
57.6098,3.0
57.6823,2.0
57.7547,3.0
57.8272,3.0
57.8996,4.0
57.9721,4.0
58.0446,2.0
58.117,4.0
58.1895,4.0
58.262,1.0
58.3345,5.0
58.407,3.0
58.4796,2.0
58.5521,3.0
58.6246,1.0
58.6972,5.0
58.7697,3.0
58.8423,1.0
58.9148,4.0
58.9874,1.0
59.06,3.0
59.1326,5.0
59.2052,3.0
59.2778,1.0
59.3504,5.0
59.4231,4.0
59.4957,4.0
59.5683,3.0
59.641,2.0
59.7136,2.0
59.7863,2.0
59.859,4.0
59.9317,3.0
60.0044,2.0
60.0771,3.0
60.1498,6.0
60.2225,7.0
60.2952,13.0
60.368,11.0
60.4407,11.0
60.5135,16.0
60.5862,8.0
60.659,10.0
60.7318,4.0
60.8046,4.0
60.8774,3.0
60.9502,5.0
61.023,1.0
61.0958,4.0
61.1686,9.0
61.2415,20.0
61.3143,28.0
61.3872,31.0
61.4601,32.0
61.5329,35.0
61.6058,17.0
61.6787,18.0
61.7516,10.0
61.8245,6.0
61.8974,4.0
61.9704,7.0
62.0433,6.0
62.1163,2.0
62.1892,3.0
62.2622,3.0
62.3352,4.0
62.4081,4.0
62.4811,0.0
62.5541,5.0
62.6272,2.0
62.7002,2.0
62.7732,2.0
62.8462,3.0
62.9193,3.0
62.9923,3.0
63.0654,2.0
63.1385,4.0
63.2116,2.0
63.2847,5.0
63.3578,3.0
63.4309,7.0
63.504,2.0
63.5771,4.0
63.6503,4.0
63.7234,6.0
63.7966,3.0
63.8698,6.0
63.943,2.0
64.0161,4.0
64.0893,5.0
64.1625,3.0
64.2358,3.0
64.309,8.0
64.3822,11.0
64.4555,21.0
64.5287,23.0
64.602,25.0
64.6753,27.0
64.7486,22.0
64.8219,18.0
64.8952,11.0
64.9685,9.0
65.0418,7.0
65.1151,4.0
65.1885,5.0
65.2619,2.0
65.3352,5.0
65.4086,2.0
65.482,3.0
65.5554,4.0
65.6288,5.0
65.7022,3.0
65.7756,3.0
65.8491,7.0
65.9225,4.0
65.996,3.0
66.0694,4.0
66.1429,7.0
66.2164,4.0
66.2899,5.0
66.3634,6.0
66.4369,4.0
66.5104,6.0
66.584,10.0
66.6575,17.0
66.7311,11.0
66.8047,23.0
66.8782,16.0
66.9518,13.0
67.0254,11.0
67.099,10.0
67.1727,4.0
67.2463,6.0
67.3199,3.0
67.3936,1.0
67.4673,4.0
67.5409,11.0
67.6146,5.0
67.6883,3.0
67.762,3.0
67.8357,5.0
67.9095,3.0
67.9832,5.0
68.057,4.0
68.1307,7.0
68.2045,12.0
68.2783,24.0
68.3521,31.0
68.4259,25.0
68.4997,26.0
68.5735,22.0
68.6473,14.0
68.7212,9.0
68.7951,4.0
68.8689,4.0
68.9428,3.0
69.0167,8.0
69.0906,2.0
69.1645,6.0
69.2384,4.0
69.3124,9.0
69.3863,14.0
69.4603,12.0
69.5343,10.0
69.6082,9.0
69.6822,13.0
69.7562,13.0
69.8303,27.0
69.9043,37.0
69.9783,25.0
70.0524,18.0
70.1264,20.0
70.2005,14.0
70.2746,7.0
70.3487,4.0
70.4228,5.0
70.4969,5.0
70.5711,6.0
70.6452,4.0
70.7194,4.0
70.7935,6.0
70.8677,5.0
70.9419,5.0
71.0161,11.0
71.0903,7.0
71.1646,8.0
71.2388,2.0
71.313,6.0
71.3873,1.0
71.4616,4.0
71.5359,2.0
71.6102,4.0
71.6845,3.0
71.7588,2.0
71.8331,5.0
71.9075,4.0
71.9818,4.0
72.0562,1.0
72.1306,5.0
72.205,4.0
72.2794,5.0
72.3538,9.0
72.4283,6.0
72.5027,7.0
72.5772,3.0
72.6516,4.0
72.7261,6.0
72.8006,5.0
72.8751,4.0
72.9497,3.0
73.0242,8.0
73.0987,6.0
73.1733,2.0
73.2479,1.0
73.3224,3.0
73.397,6.0
73.4717,1.0
73.5463,1.0
73.6209,5.0
73.6956,3.0
73.7702,1.0
73.8449,5.0
73.9196,10.0
73.9943,2.0
74.069,7.0
74.1437,3.0
74.2185,5.0
74.2932,19.0
74.368,10.0
74.4428,12.0
74.5176,7.0
74.5924,8.0
74.6672,3.0
74.742,3.0
74.8169,2.0
74.8917,2.0
74.9666,5.0
75.0415,3.0
75.1164,3.0
75.1913,5.0
75.2662,3.0
75.3412,1.0
75.4161,4.0
75.4911,4.0
75.5661,3.0
75.6411,5.0
75.7161,1.0
75.7911,4.0
75.8661,4.0
75.9412,1.0
76.0162,6.0
76.0913,4.0
76.1664,2.0
76.2415,2.0
76.3166,2.0
76.3918,3.0
76.4669,4.0
76.5421,6.0
76.6172,8.0
76.6924,4.0
76.7676,13.0
76.8428,8.0
76.9181,13.0
76.9933,14.0
77.0686,11.0
77.1439,8.0
77.2192,5.0
77.2945,14.0
77.3698,9.0
77.4451,12.0
77.5205,9.0
77.5958,15.0
77.6712,7.0
77.7466,7.0
77.822,5.0
77.8974,3.0
77.9728,5.0
78.0483,6.0
78.1238,3.0
78.1992,4.0
78.2747,3.0
78.3502,5.0
78.4258,6.0
78.5013,6.0
78.5769,1.0
78.6524,3.0
78.728,4.0
78.8036,6.0
78.8792,3.0
78.9549,2.0
79.0305,7.0
79.1062,2.0
79.1818,1.0
79.2575,5.0
79.3332,4.0
79.409,9.0
79.4847,9.0
79.5604,8.0
79.6362,10.0
79.712,20.0
79.7878,17.0
79.8636,20.0
79.9394,18.0
80.0153,15.0
80.0912,17.0
80.167,9.0
80.2429,7.0
80.3188,7.0
80.3948,4.0
80.4707,3.0
80.5467,4.0
80.6226,3.0
80.6986,4.0
80.7746,4.0
80.8507,2.0
80.9267,4.0
81.0028,1.0
81.0788,3.0
81.1549,2.0
81.231,1.0
81.3071,2.0
81.3833,6.0
81.4594,8.0
81.5356,6.0
81.6118,12.0
81.688,15.0
81.7642,14.0
81.8404,21.0
81.9167,22.0
81.993,13.0
82.0693,9.0
82.1456,7.0
82.2219,5.0
82.2982,9.0
82.3746,7.0
82.4509,11.0
82.5273,7.0
82.6037,5.0
82.6802,2.0
82.7566,2.0
82.8331,4.0
82.9095,2.0
82.986,3.0
83.0625,5.0
83.1391,5.0
83.2156,3.0
83.2922,3.0
83.3687,3.0
83.4453,4.0
83.522,3.0
83.5986,2.0
83.6241,4.0