File: data/xrd/xy/2-Pyrrolidin-1-ium-1-ylethylammonium_Bromide.lbl_rescaled.xy
# Processed xy data with Haverford two-theta converted to LBL scale
two_theta,intensity
5.81234,6.0
5.8821,7.0
5.95186,7.0
6.02163,6.0
6.0914,6.0
6.16116,15.0
6.23093,20.0
6.3007,19.0
6.37046,7.0
6.44023,8.0
6.51,5.0
6.57977,8.0
6.64954,6.0
6.71931,5.0
6.78908,6.0
6.85886,8.0
6.92863,7.0
6.9984,9.0
7.06818,46.0
7.13795,144.0
7.20773,168.0
7.27751,84.0
7.34728,15.0
7.41706,17.0
7.48684,11.0
7.55662,9.0
7.6264,8.0
7.69618,4.0
7.76596,7.0
7.83574,7.0
7.90553,2.0
7.97531,4.0
8.0451,4.0
8.11488,5.0
8.18467,5.0
8.25445,5.0
8.32424,4.0
8.39403,5.0
8.46382,6.0
8.53361,6.0
8.6034,6.0
8.67319,3.0
8.74299,5.0
8.81278,5.0
8.88257,9.0
8.95237,3.0
9.02217,2.0
9.09196,8.0
9.16176,0.0
9.23156,5.0
9.30136,4.0
9.37116,1.0
9.44096,5.0
9.51076,3.0
9.58057,6.0
9.65037,4.0
9.72018,6.0
9.78998,5.0
9.85979,10.0
9.9296,6.0
9.99941,5.0
10.0692,8.0
10.139,1.0
10.2088,7.0
10.2787,4.0
10.3485,6.0
10.4183,6.0
10.4881,3.0
10.5579,5.0
10.6277,6.0
10.6976,5.0
10.7674,5.0
10.8372,4.0
10.907,3.0
10.9768,6.0
11.0467,3.0
11.1165,1.0
11.1863,9.0
11.2561,6.0
11.326,11.0
11.3958,14.0
11.4656,13.0
11.5355,14.0
11.6053,14.0
11.6751,24.0
11.745,27.0
11.8148,33.0
11.8846,22.0
11.9545,14.0
12.0243,4.0
12.0942,5.0
12.164,5.0
12.2338,5.0
12.3037,4.0
12.3735,3.0
12.4434,6.0
12.5132,3.0
12.5831,3.0
12.6529,4.0
12.7228,4.0
12.7926,3.0
12.8625,4.0
12.9324,7.0
13.0022,2.0
13.0721,5.0
13.1419,4.0
13.2118,6.0
13.2817,7.0
13.3515,4.0
13.4214,6.0
13.4912,3.0
13.5611,4.0
13.631,3.0
13.7009,5.0
13.7707,7.0
13.8406,3.0
13.9105,2.0
13.9803,4.0
14.0502,6.0
14.1201,4.0
14.19,6.0
14.2599,5.0
14.3297,5.0
14.3996,10.0
14.4695,10.0
14.5394,7.0
14.6093,3.0
14.6792,5.0
14.7491,5.0
14.819,7.0
14.8889,2.0
14.9588,5.0
15.0287,6.0
15.0985,6.0
15.1684,7.0
15.2384,4.0
15.3083,0.0
15.3782,6.0
15.4481,4.0
15.518,3.0
15.5879,6.0
15.6578,9.0
15.7277,14.0
15.7976,10.0
15.8675,9.0
15.9374,10.0
16.0074,4.0
16.0773,4.0
16.1472,2.0
16.2171,6.0
16.2871,4.0
16.357,4.0
16.4269,7.0
16.4968,4.0
16.5668,4.0
16.6367,8.0
16.7066,5.0
16.7766,5.0
16.8465,4.0
16.9165,5.0
16.9864,9.0
17.0563,6.0
17.1263,8.0
17.1962,19.0
17.2662,17.0
17.3361,11.0
17.4061,4.0
17.476,5.0
17.546,2.0
17.6159,4.0
17.6859,6.0
17.7559,4.0
17.8258,6.0
17.8958,5.0
17.9658,2.0
18.0357,11.0
18.1057,6.0
18.1757,5.0
18.2456,8.0
18.3156,4.0
18.3856,8.0
18.4556,8.0
18.5255,4.0
18.5955,8.0
18.6655,7.0
18.7355,12.0
18.8055,12.0
18.8755,11.0
18.9455,9.0
19.0155,11.0
19.0854,6.0
19.1554,6.0
19.2254,7.0
19.2954,6.0
19.3654,2.0
19.4354,7.0
19.5055,8.0
19.5755,2.0
19.6455,4.0
19.7155,5.0
19.7855,8.0
19.8555,5.0
19.9255,4.0
19.9956,6.0
20.0656,8.0
20.1356,10.0
20.2056,6.0
20.2757,5.0
20.3457,5.0
20.4157,6.0
20.4858,9.0
20.5558,13.0
20.6258,31.0
20.6959,39.0
20.7659,22.0
20.836,18.0
20.906,18.0
20.9761,11.0
21.0461,5.0
21.1162,9.0
21.1862,3.0
21.2563,3.0
21.3263,5.0
21.3964,5.0
21.4665,7.0
21.5365,7.0
21.6066,5.0
21.6767,12.0
21.7467,15.0
21.8168,18.0
21.8869,11.0
21.957,4.0
22.027,5.0
22.0971,5.0
22.1672,4.0
22.2373,9.0
22.3074,8.0
22.3775,4.0
22.4476,6.0
22.5177,8.0
22.5878,9.0
22.6579,17.0
22.728,21.0
22.7981,18.0
22.8682,26.0
22.9383,21.0
23.0084,29.0
23.0785,72.0
23.1487,44.0
23.2188,20.0
23.2889,2.0
23.359,9.0
23.4292,9.0
23.4993,13.0
23.5694,4.0
23.6395,8.0
23.7097,10.0
23.7798,8.0
23.85,9.0
23.9201,9.0
23.9903,8.0
24.0604,5.0
24.1306,4.0
24.2007,9.0
24.2709,8.0
24.341,8.0
24.4112,5.0
24.4814,3.0
24.5515,28.0
24.6217,24.0
24.6919,21.0
24.762,9.0
24.8322,7.0
24.9024,11.0
24.9726,8.0
25.0428,11.0
25.1129,9.0
25.1831,8.0
25.2533,2.0
25.3235,12.0
25.3937,13.0
25.4639,16.0
25.5341,16.0
25.6043,13.0
25.6745,7.0
25.7447,8.0
25.815,3.0
25.8852,4.0
25.9554,9.0
26.0256,5.0
26.0958,14.0
26.1661,18.0
26.2363,15.0
26.3065,13.0
26.3768,6.0
26.447,14.0
26.5172,30.0
26.5875,32.0
26.6577,12.0
26.728,9.0
26.7982,9.0
26.8685,5.0
26.9387,4.0
27.009,7.0
27.0793,4.0
27.1495,15.0
27.2198,20.0
27.2901,15.0
27.3603,30.0
27.4306,31.0
27.5009,25.0
27.5712,13.0
27.6415,7.0
27.7117,5.0
27.782,7.0
27.8523,5.0
27.9226,10.0
27.9929,11.0
28.0632,8.0
28.1335,4.0
28.2038,9.0
28.2742,9.0
28.3445,4.0
28.4148,3.0
28.4851,4.0
28.5554,6.0
28.6258,10.0
28.6961,10.0
28.7664,13.0
28.8368,12.0
28.9071,12.0
28.9774,22.0
29.0478,28.0
29.1181,29.0
29.1885,36.0
29.2588,44.0
29.3292,44.0
29.3995,106.0
29.4699,211.0
29.5403,127.0
29.6106,33.0
29.681,31.0
29.7514,70.0
29.8218,72.0
29.8921,104.0
29.9625,63.0
30.0329,37.0
30.1033,15.0
30.1737,10.0
30.2441,7.0
30.3145,7.0
30.3849,12.0
30.4553,13.0
30.5257,12.0
30.5961,5.0
30.6666,3.0
30.737,10.0
30.8074,10.0
30.8778,6.0
30.9482,7.0
31.0187,11.0
31.0891,15.0
31.1596,9.0
31.23,12.0
31.3004,8.0
31.3709,8.0
31.4413,5.0
31.5118,9.0
31.5823,15.0
31.6527,18.0
31.7232,38.0
31.7937,61.0
31.8641,36.0
31.9346,11.0
32.0051,29.0
32.0756,39.0
32.1461,39.0
32.2166,25.0
32.287,14.0
32.3575,11.0
32.428,9.0
32.4985,8.0
32.5691,9.0
32.6396,6.0
32.7101,13.0
32.7806,7.0
32.8511,9.0
32.9216,11.0
32.9922,7.0
33.0627,8.0
33.1332,5.0
33.2038,27.0
33.2743,25.0
33.3449,20.0
33.4154,8.0
33.486,8.0
33.5565,14.0
33.6271,16.0
33.6977,20.0
33.7682,21.0
33.8388,41.0
33.9094,91.0
33.9799,126.0
34.0505,73.0
34.1211,26.0
34.1917,23.0
34.2623,13.0
34.3329,16.0
34.4035,10.0
34.4741,11.0
34.5447,24.0
34.6153,18.0
34.6859,14.0
34.7566,11.0
34.8272,16.0
34.8978,13.0
34.9684,5.0
35.0391,7.0
35.1097,8.0
35.1804,13.0
35.251,13.0
35.3217,18.0
35.3923,15.0
35.463,12.0
35.5336,8.0
35.6043,3.0
35.675,4.0
35.7457,7.0
35.8163,8.0
35.887,12.0
35.9577,7.0
36.0284,8.0
36.0991,7.0
36.1698,4.0
36.2405,6.0
36.3112,13.0
36.3819,5.0
36.4526,5.0
36.5233,6.0
36.594,7.0
36.6648,7.0
36.7355,7.0
36.8062,10.0
36.877,8.0
36.9477,4.0
37.0185,7.0
37.0892,7.0
37.16,7.0
37.2307,8.0
37.3015,7.0
37.3723,23.0
37.443,22.0
37.5138,24.0
37.5846,13.0
37.6554,5.0
37.7262,6.0
37.7969,5.0
37.8677,6.0
37.9385,5.0
38.0094,3.0
38.0802,7.0
38.151,4.0
38.2218,6.0
38.2926,9.0
38.3634,5.0
38.4343,7.0
38.5051,2.0
38.5759,9.0
38.6468,7.0
38.7176,4.0
38.7885,10.0
38.8593,10.0
38.9302,8.0
39.0011,12.0
39.0719,12.0
39.1428,9.0
39.2137,4.0
39.2846,4.0
39.3555,2.0
39.4264,4.0
39.4972,3.0
39.5681,4.0
39.6391,4.0
39.71,1.0
39.7809,6.0
39.8518,1.0
39.9227,2.0
39.9936,13.0
40.0646,10.0
40.1355,6.0
40.2065,8.0
40.2774,5.0
40.3484,4.0
40.4193,6.0
40.4903,6.0
40.5612,7.0
40.6322,8.0
40.7032,11.0
40.7742,11.0
40.8451,9.0
40.9161,13.0
40.9871,13.0
41.0581,15.0
41.1291,6.0
41.2001,6.0
41.2711,10.0
41.3421,12.0
41.4132,13.0
41.4842,18.0
41.5552,10.0
41.6263,7.0
41.6973,5.0
41.7683,6.0
41.8394,15.0
41.9104,8.0
41.9815,8.0
42.0526,10.0
42.1236,4.0
42.1947,4.0
42.2658,11.0
42.3369,32.0
42.408,119.0
42.4791,87.0
42.5502,76.0
42.6213,27.0
42.6924,9.0
42.7635,10.0
42.8346,9.0
42.9057,31.0
42.9768,112.0
43.048,105.0
43.1191,61.0
43.1903,26.0
43.2614,11.0
43.3326,7.0
43.4037,8.0
43.4749,12.0
43.5461,10.0
43.6172,4.0
43.6884,6.0
43.7596,7.0
43.8308,4.0
43.902,3.0
43.9732,3.0
44.0444,7.0
44.1156,5.0
44.1868,9.0
44.258,13.0
44.3292,13.0
44.4005,18.0
44.4717,26.0
44.543,21.0
44.6142,24.0
44.6855,11.0
44.7567,14.0
44.828,20.0
44.8992,14.0
44.9705,8.0
45.0418,14.0
45.1131,11.0
45.1844,12.0
45.2557,7.0
45.327,7.0
45.3983,9.0
45.4696,11.0
45.5409,10.0
45.6122,8.0
45.6835,16.0
45.7549,9.0
45.8262,11.0
45.8975,18.0
45.9689,12.0
46.0403,13.0
46.1116,13.0
46.183,23.0
46.2543,60.0
46.3257,50.0
46.3971,36.0
46.4685,23.0
46.5399,7.0
46.6113,11.0
46.6827,13.0
46.7541,12.0
46.8255,7.0
46.8969,6.0
46.9684,9.0
47.0398,5.0
47.1112,0.0
47.1827,1.0
47.2541,6.0
47.3256,6.0
47.3971,8.0
47.4685,4.0
47.54,5.0
47.6115,6.0
47.683,13.0
47.7544,16.0
47.8259,16.0
47.8974,15.0
47.969,12.0
48.0405,5.0
48.112,10.0
48.1835,15.0
48.255,8.0
48.3266,16.0
48.3981,9.0
48.4697,6.0
48.5412,8.0
48.6128,11.0
48.6844,8.0
48.7559,7.0
48.8275,5.0
48.8991,6.0
48.9707,16.0
49.0423,12.0
49.1139,4.0
49.1855,6.0
49.2571,6.0
49.3287,5.0
49.4004,4.0
49.472,8.0
49.5436,9.0
49.6153,7.0
49.6869,8.0
49.7586,9.0
49.8303,9.0
49.9019,11.0
49.9736,6.0
50.0453,4.0
50.117,5.0
50.1887,5.0
50.2604,7.0
50.3321,11.0
50.4038,12.0
50.4755,6.0
50.5473,11.0
50.619,5.0
50.6907,6.0
50.7625,8.0
50.8342,9.0
50.906,7.0
50.9778,9.0
51.0495,23.0
51.1213,30.0
51.1931,23.0
51.2649,25.0
51.3367,15.0
51.4085,6.0
51.4803,6.0
51.5521,11.0
51.624,11.0
51.6958,9.0
51.7676,8.0
51.8395,13.0
51.9113,10.0
51.9832,8.0
52.0551,8.0
52.1269,8.0
52.1988,6.0
52.2707,5.0
52.3426,7.0
52.4145,7.0
52.4864,6.0
52.5583,6.0
52.6302,7.0
52.7021,7.0
52.7741,9.0
52.846,9.0
52.918,7.0
52.9899,14.0
53.0619,12.0
53.1338,30.0
53.2058,123.0
53.2778,73.0
53.3498,77.0
53.4218,28.0
53.4938,10.0
53.5658,9.0
53.6378,10.0
53.7098,8.0
53.7818,12.0
53.8539,6.0
53.9259,8.0
53.998,10.0
54.07,6.0
54.1421,8.0
54.2142,7.0
54.2862,7.0
54.3583,6.0
54.4304,4.0
54.5025,8.0
54.5746,12.0
54.6467,10.0
54.7189,7.0
54.791,15.0
54.8631,22.0
54.9353,16.0
55.0074,17.0
55.0796,8.0
55.1518,6.0
55.2239,2.0
55.2961,6.0
55.3683,7.0
55.4405,4.0
55.5127,5.0
55.5849,4.0
55.6571,4.0
55.7293,8.0
55.8016,7.0
55.8738,10.0
55.9461,10.0
56.0183,7.0
56.0906,8.0
56.1628,13.0
56.2351,13.0
56.3074,9.0
56.3797,12.0
56.452,10.0
56.5243,5.0
56.5966,11.0
56.6689,4.0
56.7413,5.0
56.8136,7.0
56.886,5.0
56.9583,6.0
57.0307,10.0
57.103,10.0
57.1754,5.0
57.2478,14.0
57.3202,22.0
57.3926,15.0
57.465,16.0
57.5374,9.0
57.6098,8.0
57.6823,6.0
57.7547,7.0
57.8272,8.0
57.8996,8.0
57.9721,9.0
58.0446,10.0
58.117,17.0
58.1895,17.0
58.262,18.0
58.3345,13.0
58.407,13.0
58.4796,20.0
58.5521,27.0
58.6246,16.0
58.6972,13.0
58.7697,15.0
58.8423,9.0
58.9148,10.0
58.9874,24.0
59.06,46.0
59.1326,42.0
59.2052,26.0
59.2778,21.0
59.3504,10.0
59.4231,12.0
59.4957,9.0
59.5683,7.0
59.641,10.0
59.7136,8.0
59.7863,6.0
59.859,8.0
59.9317,7.0
60.0044,8.0
60.0771,10.0
60.1498,12.0
60.2225,10.0
60.2952,10.0
60.368,10.0
60.4407,8.0
60.5135,8.0
60.5862,4.0
60.659,5.0
60.7318,12.0
60.8046,17.0
60.8774,20.0
60.9502,29.0
61.023,26.0
61.0958,21.0
61.1686,16.0
61.2415,14.0
61.3143,12.0
61.3872,9.0
61.4601,10.0
61.5329,10.0
61.6058,12.0
61.6787,12.0
61.7516,9.0
61.8245,9.0
61.8974,15.0
61.9704,9.0
62.0433,7.0
62.1163,4.0
62.1892,6.0
62.2622,4.0
62.3352,7.0
62.4081,7.0
62.4811,9.0
62.5541,11.0
62.6272,7.0
62.7002,8.0
62.7732,5.0
62.8462,4.0
62.9193,4.0
62.9923,10.0
63.0654,21.0
63.1385,15.0
63.2116,12.0
63.2847,12.0
63.3578,6.0
63.4309,9.0
63.504,5.0
63.5771,3.0
63.6503,5.0
63.7234,9.0
63.7966,6.0
63.8698,3.0
63.943,8.0
64.0161,7.0
64.0893,9.0
64.1625,7.0
64.2358,15.0
64.309,7.0
64.3822,7.0
64.4555,8.0
64.5287,9.0
64.602,12.0
64.6753,8.0
64.7486,9.0
64.8219,8.0
64.8952,10.0
64.9685,8.0
65.0418,8.0
65.1151,13.0
65.1885,7.0
65.2619,8.0
65.3352,14.0
65.4086,6.0
65.482,8.0
65.5554,15.0
65.6288,9.0
65.7022,9.0
65.7756,8.0
65.8491,5.0
65.9225,9.0
65.996,7.0
66.0694,9.0
66.1429,1.0
66.2164,11.0
66.2899,7.0
66.3634,9.0
66.4369,10.0
66.5104,6.0
66.584,5.0
66.6575,4.0
66.7311,5.0
66.8047,7.0
66.8782,13.0
66.9518,6.0
67.0254,7.0
67.099,5.0
67.1727,7.0
67.2463,9.0
67.3199,11.0
67.3936,7.0
67.4673,9.0
67.5409,5.0
67.6146,15.0
67.6883,10.0
67.762,15.0
67.8357,13.0
67.9095,12.0
67.9832,6.0
68.057,4.0
68.1307,8.0
68.2045,9.0
68.2783,4.0
68.3521,7.0
68.4259,9.0
68.4997,7.0
68.5735,10.0
68.6473,3.0
68.7212,8.0
68.7951,13.0
68.8689,13.0
68.9428,13.0
69.0167,7.0
69.0906,6.0
69.1645,8.0
69.2384,4.0
69.3124,4.0
69.3863,4.0
69.4603,7.0
69.5343,5.0
69.6082,4.0
69.6822,6.0
69.7562,5.0
69.8303,7.0
69.9043,6.0
69.9783,9.0
70.0524,5.0
70.1264,9.0
70.2005,9.0
70.2746,7.0
70.3487,4.0
70.4228,7.0
70.4969,10.0
70.5711,6.0
70.6452,9.0
70.7194,6.0
70.7935,11.0
70.8677,10.0
70.9419,13.0
71.0161,19.0
71.0903,11.0
71.1646,8.0
71.2388,9.0
71.313,8.0
71.3873,13.0
71.4616,8.0
71.5359,8.0
71.6102,13.0
71.6845,9.0
71.7588,10.0
71.8331,7.0
71.9075,1.0
71.9818,10.0
72.0562,10.0
72.1306,14.0
72.205,9.0
72.2794,9.0
72.3538,24.0
72.4283,12.0
72.5027,10.0
72.5772,13.0
72.6516,8.0
72.7261,9.0
72.8006,6.0
72.8751,13.0
72.9497,9.0
73.0242,22.0
73.0987,16.0
73.1733,7.0
73.2479,14.0
73.3224,14.0
73.397,9.0
73.4717,5.0
73.5463,7.0
73.6209,5.0
73.6956,5.0
73.7702,10.0
73.8449,5.0
73.9196,9.0
73.9943,11.0
74.069,13.0
74.1437,6.0
74.2185,9.0
74.2932,11.0
74.368,12.0
74.4428,7.0
74.5176,11.0
74.5924,10.0
74.6672,12.0
74.742,11.0
74.8169,15.0
74.8917,9.0
74.9666,10.0
75.0415,13.0
75.1164,8.0
75.1913,6.0
75.2662,5.0
75.3412,11.0
75.4161,8.0
75.4911,10.0
75.5661,9.0
75.6411,6.0
75.7161,6.0
75.7911,3.0
75.8661,5.0
75.9412,5.0
76.0162,14.0
76.0913,7.0
76.1664,10.0
76.2415,4.0
76.3166,4.0
76.3918,5.0
76.4669,10.0
76.5421,10.0
76.6172,6.0
76.6924,4.0
76.7676,3.0
76.8428,10.0
76.9181,9.0
76.9933,3.0
77.0686,11.0
77.1439,6.0
77.2192,5.0
77.2945,8.0
77.3698,10.0
77.4451,5.0
77.5205,9.0
77.5958,6.0
77.6712,1.0
77.7466,7.0
77.822,7.0
77.8974,7.0
77.9728,9.0
78.0483,8.0
78.1238,8.0
78.1992,7.0
78.2747,13.0
78.3502,16.0
78.4258,25.0
78.5013,21.0
78.5769,20.0
78.6524,13.0
78.728,18.0
78.8036,10.0
78.8792,17.0
78.9549,7.0
79.0305,2.0
79.1062,4.0
79.1818,5.0
79.2575,3.0
79.3332,3.0
79.409,6.0
79.4847,5.0
79.5604,4.0
79.6362,6.0
79.712,3.0
79.7878,6.0
79.8636,5.0
79.9394,8.0
80.0153,5.0
80.0912,5.0
80.167,7.0
80.2429,12.0
80.3188,26.0
80.3948,19.0
80.4707,9.0
80.5467,12.0
80.6226,10.0
80.6986,9.0
80.7746,7.0
80.8507,10.0
80.9267,11.0
81.0028,11.0
81.0788,7.0
81.1549,7.0
81.231,7.0
81.3071,8.0
81.3833,4.0
81.4594,5.0
81.5356,12.0
81.6118,15.0
81.688,5.0
81.7642,4.0
81.8404,12.0
81.9167,8.0
81.993,7.0
82.0693,7.0
82.1456,5.0
82.2219,7.0
82.2982,4.0
82.3746,5.0
82.4509,5.0
82.5273,8.0
82.6037,4.0
82.6802,4.0
82.7566,10.0
82.8331,4.0
82.9095,6.0
82.986,7.0
83.0625,6.0
83.1391,7.0
83.2156,6.0
83.2922,8.0
83.3687,5.0
83.4453,6.0
83.522,6.0
83.5986,3.0
83.6241,6.0