File: data/xrd/xy/2018-08-21T00_41_41.669916+00_00_LBL.xy
'Id: "" Comment: "Integrate frame EAPbI30_00_001.gfrmwith cursor Wedge Cursor #5" Operator: "UC Berkeley" Anode: "Co" Scantype: "TwoTheta" TimePerStep: "300.011"
13.49 -0.028574
13.535 0.107059
13.58 0.272727
13.625 0.110348
13.67 0.252113
13.715 0.115301
13.76 0.151967
13.805 0.108116
13.85 0.124319
13.895 0.0696336
13.94 0.028801
13.985 0.0442673
14.03 0.0787335
14.075 -0.0101335
14.12 -0.00303159
14.165 0.00955797
14.21 0.097757
14.255 0.0452567
14.3 0.0335381
14.345 0.0839105
14.39 0.0853778
14.435 0.104001
14.48 0.0232455
14.525 0.111727
14.57 0.0842364
14.615 0.0820969
14.66 0.0788237
14.705 0.0506609
14.75 0.0608922
14.795 0.132261
14.84 0.0466383
14.885 0.0950561
14.93 0.123099
14.975 0.0774906
15.02 0.116155
15.065 0.0443341
15.11 0.0395016
15.155 0.0926506
15.2 0.123679
15.245 0.0749141
15.29 0.0477345
15.335 0.0659906
15.38 0.0589903
15.425 0.0383434
15.47 0.0531556
15.515 0.0849968
15.56 0.0944277
15.605 0.0610036
15.65 0.1317
15.695 0.0753478
15.74 0.0696471
15.785 0.135746
15.83 0.0407363
15.875 0.0380073
15.92 0.0582882
15.965 0.0706375
16.01 0.0848212
16.055 0.137994
16.1 0.0911675
16.145 0.059051
16.19 0.120914
16.235 0.0948827
16.28 0.114733
16.325 0.118803
16.37 0.0459739
16.415 0.0584244
16.46 0.14526
16.505 0.0768737
16.55 0.0547644
16.595 0.141471
16.64 0.06124
16.685 0.0971716
16.73 0.0523325
16.775 0.143382
16.82 0.116254
16.865 0.122149
16.91 0.0970304
16.955 0.0844072
17 0.0961854
17.045 0.0917942
17.09 0.0518887
17.135 0.112319
17.18 0.0452545
17.225 0.0993642
17.27 0.0709317
17.315 0.0704891
17.36 0.109135
17.405 0.100907
17.45 0.105287
17.495 0.0685023
17.54 0.103343
17.585 0.0566265
17.63 0.104571
17.675 0.104658
17.72 0.0721173
17.765 0.0692813
17.81 0.0705177
17.855 0.114654
17.9 0.0886041
17.945 0.0658497
17.99 0.107989
18.035 0.0832575
18.08 0.120754
18.125 0.0810018
18.17 0.0948026
18.215 0.0229498
18.26 0.0955818
18.305 0.0891853
18.35 0.0662965
18.395 0.0926213
18.44 0.0583774
18.485 0.0975861
18.53 0.0811626
18.575 0.138362
18.62 0.106363
18.665 0.138858
18.71 0.173956
18.755 0.0936467
18.8 0.0672809
18.845 0.0753216
18.89 0.133874
18.935 0.0371724
18.98 0.0712444
19.025 0.122653
19.07 0.100478
19.115 0.0747788
19.16 0.0936371
19.205 0.0372916
19.25 0.113738
19.295 0.0630127
19.34 0.0635846
19.385 0.0327324
19.43 0.0881181
19.475 0.0961844
19.52 0.0940375
19.565 0.109352
19.61 0.0708834
19.655 0.0772046
19.7 0.0717292
19.745 0.12372
19.79 0.0280154
19.835 0.042466
19.88 0.101798
19.925 0.0347201
19.97 0.0983818
20.015 0.0857456
20.06 0.0827128
20.105 0.0624242
20.15 0.0910161
20.195 0.0894668
20.24 0.0713918
20.285 0.115667
20.33 0.125325
20.375 0.0913062
20.42 0.0994348
20.465 0.117523
20.51 0.0640933
20.555 0.0512241
20.6 0.0953985
20.645 0.0736272
20.69 0.0513459
20.735 0.0362493
20.78 0.103464
20.825 0.0650295
20.87 0.0812212
20.915 0.101239
20.96 0.098262
21.005 0.128157
21.05 0.0441576
21.095 0.062642
21.14 0.0749162
21.185 0.067761
21.23 0.093283
21.275 0.0602554
21.32 0.0788933
21.365 0.0500638
21.41 0.0890897
21.455 0.0146124
21.5 0.0841342
21.545 0.0598959
21.59 0.0522111
21.635 0.0341224
21.68 0.0228975
21.725 0.0742192
21.77 0.0503106
21.815 0.0667977
21.86 0.0433353
21.905 0.0708216
21.95 0.0931097
21.995 0.0840457
22.04 0.0129475
22.085 0.0697416
22.13 0.017168
22.175 0.0658823
22.22 0.0769063
22.265 0.0482552
22.31 0.10867
22.355 0.11348
22.4 0.0525854
22.445 0.0204959
22.49 0.0713765
22.535 0.111692
22.58 0.0496911
22.625 0.126112
22.67 0.113138
22.715 0.0503553
22.76 0.077306
22.805 0.0657103
22.85 0.0565024
22.895 0.0742978
22.94 0.0889681
22.985 0.0319274
23.03 0.0460719
23.075 0.0223143
23.12 0.0577854
23.165 0.0598763
23.21 0.0832168
23.255 0.0662668
23.3 0.0717297
23.345 0.0296966
23.39 0.070412
23.435 0.0791302
23.48 0.0588725
23.525 0.101857
23.57 0.0992261
23.615 0.152205
23.66 0.134323
23.705 0.114219
23.75 0.128454
23.795 0.0962907
23.84 0.0668112
23.885 0.0476871
23.93 0.0678732
23.975 0.0701867
24.02 0.0611629
24.065 0.0607033
24.11 0.052762
24.155 0.0709645
24.2 0.0665523
24.245 0.0630801
24.29 0.101677
24.335 0.0508163
24.38 0.0806298
24.425 0.061168
24.47 0.0464019
24.515 0.0146313
24.56 0.0774452
24.605 0.0655213
24.65 0.0631642
24.695 0.0477233
24.74 0.080697
24.785 0.0321727
24.83 0.0566463
24.875 0.0995297
24.92 0.0628049
24.965 0.0670277
25.01 0.0837115
25.055 0.0684812
25.1 0.0430141
25.145 0.0819111
25.19 0.0687934
25.235 0.115309
25.28 0.153269
25.325 0.121872
25.37 0.18249
25.415 0.133929
25.46 0.102954
25.505 0.0715689
25.55 0.130582
25.595 0.0515683
25.64 0.0466171
25.685 0.0344262
25.73 0.0256799
25.775 0.071999
25.82 0.0724703
25.865 0.0532808
25.91 0.0621736
25.955 0.0631526
26 0.0786012
26.045 0.0606259
26.09 0.0251824
26.135 0.0717212
26.18 0.0628106
26.225 0.038583
26.27 0.0323004
26.315 0.0862441
26.36 0.0591145
26.405 0.0500291
26.45 0.0724118
26.495 0.0169452
26.54 0.0596993
26.585 0.0452115
26.63 0.0632588
26.675 0.02752
26.72 0.0681672
26.765 0.0357471
26.81 0.0807134
26.855 0.0754114
26.9 0.128369
26.945 0.0238724
26.99 0.00353993
27.035 0.044534
27.08 0.0406614
27.125 0.043943
27.17 0.0598616
27.215 0.0370521
27.26 0.0362167
27.305 0.0732496
27.35 0.0694246
27.395 0.0485645
27.44 0.0724486
27.485 0.0401093
27.53 0.0617761
27.575 0.0616053
27.62 0.0541343
27.665 0.0718158
27.71 0.0899992
27.755 0.0388606
27.8 -0.00842297
27.845 0.047186
27.89 0.0500253
27.935 0.0772327
27.98 0.0819419
28.025 0.0491199
28.07 0.0850786
28.115 0.0385082
28.16 0.0214913
28.205 0.0309882
28.25 0.119517
28.295 0.110909
28.34 0.0908346
28.385 0.0350787
28.43 0.0700899
28.475 0.0648228
28.52 0.0715264
28.565 0.0494955
28.61 0.0573272
28.655 0.0709402
28.7 0.101526
28.745 0.0448875
28.79 0.109885
28.835 0.0924457
28.88 0.102193
28.925 0.124586
28.97 0.0948432
29.015 0.136874
29.06 0.103821
29.105 0.0709968
29.15 0.0947291
29.195 0.0566888
29.24 0.0652466
29.285 0.00593542
29.33 0.0594744
29.375 0.0672946
29.42 0.0536394
29.465 0.0573992
29.51 0.0328811
29.555 0.0201534
29.6 0.0659168
29.645 0.0683158
29.69 0.0404881
29.735 0.0807863
29.78 0.0775479
29.825 0.0851247
29.87 0.1001
29.915 0.0640273
29.96 0.101382
30.005 0.0780192
30.05 0.123002
30.095 0.258597
30.14 0.315568
30.185 0.428193
30.23 0.575297
30.275 0.815601
30.32 0.942681
30.365 0.912986
30.41 0.616737
30.455 0.392828
30.5 0.277718
30.545 0.162538
30.59 0.0959852
30.635 0.100008
30.68 0.0774577
30.725 0.101547
30.77 0.0906253
30.815 0.0630068
30.86 0.0277941
30.905 0.0527961
30.95 0.0292717
30.995 0.0265939
31.04 0.0517396
31.085 0.0987461
31.13 0.0860194
31.175 0.0485193
31.22 0.0661615
31.265 0.0429565
31.31 0.0255123
31.355 0.0530597
31.4 0.0862793
31.445 0.0460449
31.49 0.00772192
31.535 0.00263017
31.58 0.0220937
31.625 0.058331
31.67 0.0462307
31.715 0.0464713
31.76 0.0390357
31.805 0.0581854
31.85 0.050539
31.895 0.025528
31.94 0.0498367
31.985 0.0399979
32.03 0.0364726
32.075 0.0459206
32.12 0.0426939
32.165 0.0714334
32.21 0.0387527
32.255 0.0473075
32.3 0.0143128
32.345 0.051743
32.39 0.0524112
32.435 0.0179753
32.48 0.0224177
32.525 0.0581911
32.57 0.0376165
32.615 0.0820831
32.66 0.0719915
32.705 0.0503256
32.75 0.0180298
32.795 0.0586575
32.84 0.0562179
32.885 0.0316698
32.93 0.0487039
32.975 0.0643955
33.02 0.0269311
33.065 0.0397527
33.11 -0.0027821
33.155 0.0173029
33.2 0.0275023
33.245 0.0574507
33.29 -0.00450544
33.335 0.0531493
33.38 0.0432957
33.425 0.0406633
33.47 0.0327525
33.515 0.0077457
33.56 0.0298491
33.605 0.0551973
33.65 0.0564285
33.695 0.0472748
33.74 0.0351782
33.785 0.0495689
33.83 0.0402455
33.875 0.0368846
33.92 0.0639745
33.965 -0.00205514
34.01 0.0266987
34.055 0.0468584
34.1 0.0661658
34.145 0.0386255
34.19 0.039625
34.235 0.0249714
34.28 0.0502457
34.325 0.0301847
34.37 0.0557081
34.415 0.0659902
34.46 0.0499172
34.505 0.0323626
34.55 0.0371407
34.595 0.0774865
34.64 0.0550148
34.685 0.05757
34.73 0.0849376
34.775 0.121011
34.82 0.143785
34.865 0.156597
34.91 0.183599
34.955 0.164993
35 0.225269
35.045 0.175395
35.09 0.148932
35.135 0.129159
35.18 0.0969809
35.225 0.106606
35.27 0.0644491
35.315 0.0819316
35.36 0.0604646
35.405 0.0465163
35.45 0.0440627
35.495 0.0650046
35.54 0.0564333
35.585 0.0529707
35.63 0.0469295
35.675 0.0390509
35.72 0.036072
35.765 0.0513719
35.81 0.0254245
35.855 0.0387795
35.9 0.0254866
35.945 0.038787
35.99 0.0559699
36.035 0.0564466
36.08 0.0448104
36.125 0.0633383
36.17 0.0673071
36.215 0.0520917
36.26 0.068673
36.305 0.0928642
36.35 0.131771
36.395 0.246111
36.44 0.411042
36.485 0.539458
36.53 0.72875
36.575 0.724115
36.62 0.653143
36.665 0.458964
36.71 0.280188
36.755 0.140431
36.8 0.123222
36.845 0.0600538
36.89 0.0643885
36.935 0.0427741
36.98 0.0439578
37.025 0.0472037
37.07 0.0466974
37.115 0.0615822
37.16 0.0375796
37.205 0.0619205
37.25 0.0421427
37.295 0.074549
37.34 0.111862
37.385 0.107889
37.43 0.117089
37.475 0.143776
37.52 0.169702
37.565 0.22284
37.61 0.26585
37.655 0.386516
37.7 0.393544
37.745 0.383763
37.79 0.345365
37.835 0.240623
37.88 0.18962
37.925 0.142058
37.97 0.0824166
38.015 0.0946003
38.06 0.0672552
38.105 0.0749755
38.15 0.0308934
38.195 0.0460735
38.24 0.0255052
38.285 0.0464978
38.33 0.0375819
38.375 0.0554986
38.42 0.0380845
38.465 0.0249143
38.51 0.0156407
38.555 0.0437538
38.6 0.0410379
38.645 0.0503701
38.69 0.0438471
38.735 0.0624389
38.78 0.0835905
38.825 0.105372
38.87 0.0486484
38.915 0.0844481
38.96 0.0625246
39.005 0.0574172
39.05 0.068101
39.095 0.051282
39.14 0.0662712
39.185 0.0257904
39.23 0.0113459
39.275 0.046402
39.32 0.0398127
39.365 0.0206995
39.41 0.00692872
39.455 0.0237632
39.5 0.0186992
39.545 0.0291632
39.59 0.0263247
39.635 0.00990722
39.68 0.0188277
39.725 0.020455
39.77 0.0102067
39.815 0.0345599
39.86 0.0282021
39.905 0.0189556
39.95 -0.001053
39.995 0.00806093
40.04 0.0201059
40.085 0.0256307
40.13 0.00914249
40.175 0.00782566
40.22 0.0290585
40.265 0.00657912
40.31 0.0053529
40.355 0.00802474
40.4 0.0107604
40.445 0.0119378
40.49 0.0155428
40.535 0.0090079
40.58 0.00839871
40.625 0.0451694
40.67 0.0132338
40.715 0.00849783
40.76 0.0384162
40.805 0.0199654
40.85 0.0203036
40.895 0.0423564
40.94 0.0534304
40.985 0.0252311
41.03 0.0302738
41.075 0.0384584
41.12 0.031074
41.165 -0.00259287
41.21 0.0208293
41.255 0.0273818
41.3 0.0476684
41.345 0.031745
41.39 0.0373846
41.435 0.0299125
41.48 0.0448189
41.525 0.0485131
41.57 0.0516495
41.615 0.0603157
41.66 0.118665
41.705 0.22199
41.75 0.25816
41.795 0.289714
41.84 0.205325
41.885 0.128287
41.93 0.0805939
41.975 0.0426624
42.02 0.0218807
42.065 0.0181256
42.11 0.0289131
42.155 0.021175
42.2 0.0039872
42.245 0.027791
42.29 0.0236453
42.335 0.0165128
42.38 0.0305034
42.425 0.0331054
42.47 0.0346818
42.515 0.00799467
42.56 0.0177692
42.605 0.0177073
42.65 0.0464176
42.695 0.0118738
42.74 0.0235853
42.785 0.00553695
42.83 0.0306153
42.875 0.0254197
42.92 -3.53373e-05
42.965 0.00654611
43.01 0.0154784
43.055 -0.00232303
43.1 0.0425426
43.145 -0.00696993
43.19 0.00271668
43.235 0.0283161
43.28 0.0027473
43.325 0.0298453
43.37 -0.00205777
43.415 0.0467287
43.46 0.00372701
43.505 0.0246472
43.55 0.0158299
43.595 0.000950447
43.64 0.0416277
43.685 0.000473707
43.73 -0.00835067
43.775 -0.0050704
43.82 0.0183208
43.865 -0.00366527
43.91 0.00688144
43.955 0.0192462
44 0.0223788
44.045 0.00816897
44.09 0.0194148
44.135 0.0198982
44.18 0.0235588
44.225 0.0314269
44.27 0.0458759
44.315 0.0120834
44.36 0.00950804
44.405 0.0364395
44.45 0.00515515
44.495 0.0095232
44.54 -0.00139845
44.585 0.0275705
44.63 0.0391849
44.675 0.0293658
44.72 0.0442954
44.765 0.101984
44.81 0.166091
44.855 0.144951
44.9 0.127949
44.945 0.107968
44.99 0.104876
45.035 0.105925
45.08 0.101409
45.125 0.0365992
45.17 0.0845377
45.215 0.0449931
45.26 0.054054
45.305 0.0575772
45.35 0.00635487
45.395 0.0264668
45.44 0.0207203
45.485 0.0324214
45.53 0.0194643
45.575 0.00776683
45.62 0.0119138
45.665 0.00188506
45.71 0.0112948
45.755 0.0130349
45.8 0.0215736
45.845 0.0127243
45.89 0.0335119
45.935 -0.00510928
45.98 -0.000423169
46.025 -5.91499e-06
46.07 0.0295011
46.115 0.0232085
46.16 0.00525807
46.205 0.00716767
46.25 0.0142131
46.295 0.0166921
46.34 0.00526133
46.385 0.0108265
46.43 0.0114407
46.475 0.0162582
46.52 0.0274934
46.565 0.0182547
46.61 0.0015187
46.655 0.0330814
46.7 0.0130244
46.745 0.0309782
46.79 0.0224224
46.835 0.0443313
46.88 0.0198068
46.925 0.0241201
46.97 0.00431558
47.015 0.0127467
47.06 -0.00583226
47.105 0.00926728
47.15 0.0139451
47.195 0.00108544
47.24 0.0163741
47.285 0.0318997
47.33 0.0159472
47.375 -0.000127576
47.42 0.0232779
47.465 0.0332377
47.51 0.0341422
47.555 0.0480256
47.6 0.0522951
47.645 0.0475338
47.69 0.0349763
47.735 0.0719633
47.78 0.0903312
47.825 0.0867448
47.87 0.100495
47.915 0.0818582
47.96 0.0770377
48.005 0.102104
48.05 0.0642158
48.095 0.0939024
48.14 0.0756715
48.185 0.0732422
48.23 0.138064
48.275 0.163947
48.32 0.193999
48.365 0.288233
48.41 0.355254
48.455 0.415014
48.5 0.392122
48.545 0.391269
48.59 0.382021
48.635 0.300334
48.68 0.190741
48.725 0.14563
48.77 0.122569
48.815 0.0853024
48.86 0.0783117
48.905 0.0648069
48.95 0.0536782
48.995 0.0377867
49.04 0.0407587
49.085 0.0584178
49.13 0.0707562
49.175 0.0491742
49.22 0.0671716
49.265 0.0768934
49.31 0.105056
49.355 0.0986563
49.4 0.0972718
49.445 0.118624
49.49 0.0824232
49.535 0.0592973
49.58 0.0591751
49.625 0.039496
49.67 0.0448913
49.715 0.0381681
49.76 0.0267404
49.805 0.0330248
49.85 0.0363606
49.895 0.0201222
49.94 0.020839
49.985 0.0261828
50.03 0.026372
50.075 0.0264783
50.12 0.0384574
50.165 0.0361336
50.21 0.0286783
50.255 0.0321766
50.3 0.0322897
50.345 0.0584065
50.39 0.0825408
50.435 0.113741
50.48 0.155043
50.525 0.200253
50.57 0.200163
50.615 0.204218
50.66 0.193796
50.705 0.192383
50.75 0.157901
50.795 0.132899
50.84 0.0594703
50.885 0.0396912
50.93 0.0434315
50.975 0.0521091
51.02 0.042017
51.065 0.0230704
51.11 0.00890433
51.155 0.00695374
51.2 0.00696798
51.245 0.00565696
51.29 0.0193673
51.335 0.0175451
51.38 0.00642301
51.425 0.00487166
51.47 0.00636607
51.515 0.01604
51.56 0.0209126
51.605 0.0114386
51.65 0.0168099
51.695 0.00658451
51.74 0.0142042
51.785 0.00192871
51.83 0.0161456
51.875 0.0202429
51.92 0.0215926
51.965 0.020298
52.01 0.0350301
52.055 0.0418784
52.1 0.0592162
52.145 0.054589
52.19 0.0536317
52.235 0.0844543
52.28 0.06887
52.325 0.0632709
52.37 0.0810171
52.415 0.0688065
52.46 0.0750194
52.505 0.0651644
52.55 0.0460514
52.595 0.0332154
52.64 0.0385037
52.685 0.031502
52.73 0.0262306
52.775 0.00224853
52.82 0.0123998
52.865 0.0199023
52.91 0.0046742
52.955 0.00860148
53 0.0211855
53.045 -0.00489085
53.09 -0.00150958
53.135 0.011347
53.18 0.00206274
53.225 0.0156991
53.27 0.0120362
53.315 0.00769958
53.36 0.00115935
53.405 0.0203096
53.45 0.00327406
53.495 0.00488296
53.54 0.0286161
53.585 0.0163474
53.63 0.0106767
53.675 0.0114109
53.72 0.0186697
53.765 0.0197634
53.81 0.0232198
53.855 0.0304844
53.9 0.0417499
53.945 0.0450479
53.99 0.0602707
54.035 0.0671328
54.08 0.0737522
54.125 0.0388012
54.17 0.0758519
54.215 0.0607533
54.26 0.0579292
54.305 0.0464319
54.35 0.0414225
54.395 0.0111197
54.44 0.011567
54.485 0.03145
54.53 0.0141454
54.575 0.0242072
54.62 0.0172497
54.665 0.00733857
54.71 0.0158812
54.755 0.00935037
54.8 0.000597974
54.845 0.00939584
54.89 0.00616167
54.935 0.00422866
54.98 -0.013757
55.025 -0.00043505
55.07 0.0144655
55.115 0.0100008
55.16 -0.0063489
55.205 0.00565308
55.25 0.00770329
55.295 0.0114454
55.34 0.0256213
55.385 0.0169117
55.43 0.015767
55.475 0.00748413
55.52 0.0131578
55.565 0.0106336
55.61 0.00584145
55.655 0.012082
55.7 0.0129458
55.745 0.0122373
55.79 0.00769108
55.835 0.0111401
55.88 0.00853219
55.925 0.0150901
55.97 0.0194888
56.015 0.0155279
56.06 0.00495804
56.105 0.0210186
56.15 0.00208091
56.195 -0.00717069
56.24 0.0297357
56.285 0.00650862
56.33 0.00447948
56.375 0.0249562
56.42 0.00776714
56.465 0.00243907
56.51 0.0142022
56.555 0.0258518
56.6 0.0303055
56.645 0.00819145
56.69 0.026085
56.735 -0.00351677
56.78 0.0134608
56.825 0.0228103
56.87 0.00808523
56.915 0.0115538
56.96 -0.00554229
57.005 0.0282099
57.05 0.0167974
57.095 0.0232214
57.14 0.0236825
57.185 0.0122387
57.23 0.0492101
57.275 0.020367
57.32 0.0369997
57.365 0.0160577
57.41 0.0271518
57.455 0.0252366
57.5 0.0209581
57.545 0.0336553
57.59 0.0279743
57.635 0.0342833
57.68 0.0286616
57.725 0.0411212
57.77 0.0358373
57.815 0.0266899
57.86 0.0440394
57.905 0.0302902
57.95 0.0412317
57.995 0.0438211
58.04 0.0421895
58.085 0.0608854
58.13 0.0888992
58.175 0.075727
58.22 0.067486
58.265 0.08963
58.31 0.0888153
58.355 0.0879406
58.4 0.0506194
58.445 0.0418237
58.49 0.0580315
58.535 0.0440539
58.58 0.0377398
58.625 0.023199
58.67 0.0357149
58.715 0.0500475
58.76 0.0171784
58.805 0.0198124
58.85 0.0387018
58.895 0.00537374
58.94 0.0115752
58.985 0.0301296
59.03 0.0239335
59.075 0.00807923
59.12 0.0256113
59.165 0.0224307
59.21 -0.00140094
59.255 -0.000957239
59.3 0.0247038
59.345 0.00934535
59.39 0.00752011
59.435 0.0255967
59.48 0.00407157
59.525 0.0079793
59.57 0.0315408
59.615 0.00765242
59.66 0.00114328
59.705 0.0272695
59.75 0.0104746
59.795 0.0127405
59.84 9.91135e-05
59.885 0.0282678
59.93 0.032286
59.975 0.0158141
60.02 -0.00682312
60.065 0.0185796
60.11 0.00698388
60.155 0.0270718
60.2 -0.00691415
60.245 0.0124282
60.29 0.0217074
60.335 -0.0135305
60.38 0.0119137
60.425 0.00911444
60.47 -0.00271105
60.515 0.00709478
60.56 0.0235872
60.605 0.0100203
60.65 0.0298065
60.695 0.00145972
60.74 0.0186878
60.785 0.00929938
60.83 0.0171219
60.875 0.016787
60.92 0.0248437
60.965 0.0139037
61.01 0.00919303
61.055 0.0214423
61.1 0.0199314
61.145 0.00948195
61.19 4.1111e-06
61.235 0.0372162
61.28 -0.00224311
61.325 0.0134087
61.37 0.011992
61.415 0.0293126
61.46 0.00626637
61.505 0.0038932
61.55 0.0198032
61.595 0.0129243
61.64 0.0314331
61.685 0.0366869
61.73 0.0205349
61.775 0.0335075
61.82 0.0318919
61.865 0.0219014
61.91 0.00958723
61.955 0.0485302
62 0.0544331
62.045 0.0719081
62.09 0.0793377
62.135 0.084364
62.18 0.0830546
62.225 0.064836
62.27 0.0652301
62.315 0.0640757
62.36 0.0479302
62.405 0.0503637
62.45 0.0686261
62.495 0.0510678
62.54 0.0262883
62.585 0.0529342
62.63 0.0454677
62.675 0.0591698
62.72 0.0472239
62.765 0.0490711
62.81 0.0324724
62.855 0.0550177
62.9 0.0806502
62.945 0.0794429
62.99 0.0745073
63.035 0.0705345
63.08 0.0793703
63.125 0.0777345
63.17 0.0749185
63.215 0.0798986
63.26 0.073673
63.305 0.0682765
63.35 0.0417963
63.395 0.035226
63.44 0.0430748
63.485 0.0490578
63.53 0.0330261
63.575 0.0363298
63.62 0.050848
63.665 0.0311492
63.71 0.0182485
63.755 0.0458773
63.8 0.0271614
63.845 0.0179813
63.89 0.0315728
63.935 0.0426518
63.98 0.0338648
64.025 -0.00176568
64.07 0.0289728
64.115 0.0160173
64.16 0.0262215
64.205 0.0312192
64.25 0.02508
64.295 0.0345756
64.34 0.00113699
64.385 0.0218486
64.43 0.012428
64.475 0.0216799
64.52 0.0335812
64.565 0.0293875
64.61 0.021976
64.655 0.0303185
64.7 0.0197217
64.745 0.0108872
64.79 0.012278
64.835 0.0133387
64.88 0.0325838
64.925 0.0110468
64.97 0.0229377
65.015 0.0209792
65.06 0.0380117
65.105 0.0467115
65.15 0.0191639
65.195 0.050808
65.24 0.0380926
65.285 0.0354817
65.33 0.0324442
65.375 0.0412954
65.42 0.032674
65.465 0.0396147
65.51 0.0388576
65.555 0.0344704
65.6 0.0228693
65.645 0.0391918
65.69 0.0202606
65.735 0.0394978
65.78 0.0205645
65.825 0.0347619
65.87 0.0148697
65.915 0.0214343
65.96 0.0315289
66.005 0.0147123
66.05 0.020386
66.095 0.00172529
66.14 -0.00526291
66.185 0.0128639
66.23 0.0105012
66.275 0.0126532
66.32 0.00695095
66.365 0.0106785
66.41 0.0191596
66.455 0.0105143
66.5 0.00755634
66.545 0.0234464
66.59 0.0107768
66.635 -0.00406845
66.68 0.00366446
66.725 0.00392755
66.77 -0.000392804
66.815 0.0102219
66.86 0.0180805
66.905 0.0155855
66.95 0.000576693
66.995 0.00181132
67.04 0.0255537
67.085 0.0104619
67.13 0.00342826
67.175 0.00713338
67.22 0.0158752
67.265 0.0127895
67.31 -0.00164933
67.355 -0.00312953
67.4 0.0108575
67.445 0.0130521
67.49 0.00778605
67.535 0.0154273
67.58 0.00840741
67.625 0.0294236
67.67 0.0147787
67.715 0.00471153
67.76 0.0244524
67.805 0.0103567
67.85 0.00378867
67.895 0.0131444
67.94 0.00652966
67.985 0.0096771
68.03 0.0108891
68.075 0.0262275
68.12 0.0315508
68.165 0.0362092
68.21 0.0115324
68.255 0.0514686
68.3 0.0301832
68.345 0.0208823
68.39 0.0348889
68.435 0.0287752
68.48 0.029883
68.525 0.0196431
68.57 0.0156915
68.615 0.0247945
68.66 0.0164815
68.705 0.0274605
68.75 0.00692676
68.795 0.00930443
68.84 0.00910684
68.885 0.00544962
68.93 0.0250985
68.975 0.00935788
69.02 0.0141429
69.065 0.0116887
69.11 0.000806656
69.155 0.024883
69.2 0.00767296
69.245 -0.00333059
69.29 0.00412697
69.335 0.0135501
69.38 0.0162158
69.425 0.0206712
69.47 0.00816926
69.515 -0.0128333
69.56 0.0162962
69.605 0.0150414
69.65 0.00949703
69.695 0.0116423
69.74 0.00712211
69.785 0.0204817
69.83 0.021744
69.875 0.00702462
69.92 0.0161624
69.965 0.00398928
70.01 0.015561
70.055 0.0154323
70.1 0.0322966
70.145 0.0131235
70.19 0.0197624
70.235 0.0468501
70.28 0.0281607
70.325 0.0251576
70.37 0.0488244
70.415 0.0369931
70.46 0.0255109
70.505 0.0253088
70.55 0.0520692
70.595 0.0655115
70.64 0.0537934
70.685 0.0675066
70.73 0.0726682
70.775 0.0311324
70.82 0.0465049
70.865 0.0389498
70.91 0.0416969
70.955 0.0284352
71 0.0345291
71.045 0.0283589
71.09 0.0242658
71.135 0.0307444
71.18 0.0392907
71.225 0.0325084
71.27 0.0319631
71.315 0.0324089
71.36 0.0376123
71.405 0.0419661
71.45 0.0787333
71.495 0.0916315
71.54 0.103069
71.585 0.163866
71.63 0.178484
71.675 0.207156
71.72 0.196685
71.765 0.163113
71.81 0.187646
71.855 0.194881
71.9 0.185003
71.945 0.155326
71.99 0.147021
72.035 0.132537
72.08 0.133928
72.125 0.118242
72.17 0.1078
72.215 0.06969
72.26 0.070127
72.305 0.0406009
72.35 0.0349869
72.395 0.0515825
72.44 0.032084
72.485 0.0326972
72.53 0.023776
72.575 0.0311962
72.62 0.0208915
72.665 0.0251355
72.71 0.0241266
72.755 0.02434
72.8 0.0218146
72.845 0.0260792
72.89 0.012447
72.935 0.00621077
72.98 0.0145039
73.025 -0.00754047
73.07 0.016967
73.115 0.0101981
73.16 0.000366922
73.205 0.00375014
73.25 -0.00885036
73.295 0.0090774
73.34 -0.00201446
73.385 -0.00233463
73.43 0.0049829
73.475 0.00505732
73.52 0.00587662
73.565 -0.00532919
73.61 -0.00192508
73.655 -0.00292423
73.7 0.0148547
73.745 -0.00208497
73.76 -0.0150257