File: data/xrd/xy/2018-07-24T16_19_50.004700+00_00_LBL.xy
'Id: "" Comment: "Integrate frame perovskite0_02_001.gfrmwith cursor Wedge Cursor #1" Operator: "UC Berkeley" Anode: "Co" Scantype: "TwoTheta" TimePerStep: "300"
15.005 -0.0366788
15.04 -0.016265
15.075 0.00840436
15.11 0.0554978
15.145 0.0119106
15.18 -0.030884
15.215 0.00999875
15.25 0.00458385
15.285 0.0086125
15.32 0.0289989
15.355 -0.0128442
15.39 0.0266481
15.425 0.0191868
15.46 0.0578742
15.495 -0.033467
15.53 -0.0252527
15.565 0.0422469
15.6 0.0323215
15.635 0.033952
15.67 0.0373089
15.705 0.022851
15.74 0.0268812
15.775 0.0289925
15.81 0.0382037
15.845 -0.00681416
15.88 0.0512845
15.915 0.0386251
15.95 0.0128867
15.985 0.0337061
16.02 0.0512287
16.055 0.0604308
16.09 -0.0351594
16.125 0.0228685
16.16 0.0453129
16.195 0.00210613
16.23 0.0233782
16.265 0.0470522
16.3 0.0417106
16.335 0.0458626
16.37 0.0516512
16.405 0.0686633
16.44 0.0231657
16.475 0.0460152
16.51 0.0236141
16.545 0.0291695
16.58 0.0487793
16.615 0.0130884
16.65 0.0249462
16.685 0.0102782
16.72 0.0449134
16.755 0.0585676
16.79 0.0261697
16.825 0.0254833
16.86 0.0310143
16.895 0.0302203
16.93 0.0380642
16.965 0.0181343
17 0.0725972
17.035 0.039543
17.07 0.031872
17.105 -0.00519983
17.14 0.0466261
17.175 0.0319032
17.21 0.00423271
17.245 0.0208815
17.28 0.067599
17.315 0.0885703
17.35 0.0402461
17.385 0.0848389
17.42 0.0594423
17.455 0.0399337
17.49 -0.018756
17.525 0.0753223
17.56 0.0957486
17.595 0.0424322
17.63 0.00954772
17.665 0.00248571
17.7 0.0322229
17.735 0.0254724
17.77 0.0834808
17.805 0.0772564
17.84 0.0675898
17.875 0.0782043
17.91 0.0433144
17.945 -0.00810001
17.98 0.00551472
18.015 0.00747037
18.05 0.0077393
18.085 0.0371106
18.12 0.0333834
18.155 -0.0104109
18.19 0.0461023
18.225 0.0533866
18.26 -0.00651862
18.295 0.000202316
18.33 0.0444177
18.365 0.0528596
18.4 0.00493071
18.435 0.0383588
18.47 0.0941815
18.505 0.0381584
18.54 0.0478747
18.575 0.0775583
18.61 0.0108618
18.645 -0.0172968
18.68 0.0293245
18.715 0.0600338
18.75 0.0391261
18.785 0.00257082
18.82 0.0247924
18.855 0.0145186
18.89 -0.0352762
18.925 0.0497908
18.96 0.00677051
18.995 0.0526139
19.03 0.0312862
19.065 0.000865966
19.1 -0.004074
19.135 0.0416011
19.17 0.0283698
19.205 0.0494368
19.24 0.0719575
19.275 0.0422082
19.31 0.0245401
19.345 0.0362097
19.38 0.0273675
19.415 0.0471565
19.45 -0.00457006
19.485 0.0976001
19.52 0.0303014
19.555 0.0627734
19.59 0.0554069
19.625 0.0349413
19.66 0.048411
19.695 0.0503099
19.73 0.0278297
19.765 0.0354144
19.8 0.0591753
19.835 0.0759977
19.87 0.0650954
19.905 0.021006
19.94 0.0396642
19.975 0.0491467
20.01 0.0483242
20.045 0.0431174
20.08 0.0868985
20.115 0.109203
20.15 0.0635299
20.185 0.0494051
20.22 0.0862542
20.255 0.0835307
20.29 0.052095
20.325 0.0638839
20.36 0.073489
20.395 0.0224976
20.43 0.0432978
20.465 0.109747
20.5 0.0441428
20.535 0.0589358
20.57 0.0554393
20.605 0.0401341
20.64 0.0600707
20.675 0.0196683
20.71 0.019893
20.745 0.00457364
20.78 0.024807
20.815 0.0310081
20.85 0.0501885
20.885 0.0560779
20.92 0.0615378
20.955 0.0801761
20.99 0.0433041
21.025 0.0760002
21.06 0.0897536
21.095 0.0479895
21.13 0.0833134
21.165 0.107928
21.2 0.0458937
21.235 0.0924156
21.27 0.0501028
21.305 0.0457278
21.34 0.0538425
21.375 0.0616873
21.41 0.0901677
21.445 0.0728567
21.48 0.0887768
21.515 0.0591227
21.55 0.0427453
21.585 0.0938081
21.62 0.0647356
21.655 0.106341
21.69 0.0583206
21.725 0.088461
21.76 0.0872485
21.795 0.0959418
21.83 0.0972224
21.865 0.0088913
21.9 0.0622959
21.935 0.0980211
21.97 0.111805
22.005 0.0900959
22.04 0.077456
22.075 0.0439583
22.11 0.0766849
22.145 0.0811112
22.18 0.0911755
22.215 0.0938173
22.25 0.0788931
22.285 0.0930737
22.32 0.0954769
22.355 0.0938896
22.39 0.108094
22.425 0.0961509
22.46 0.0815776
22.495 0.0816114
22.53 0.0503112
22.565 0.0959137
22.6 0.0950248
22.635 0.0893717
22.67 0.105479
22.705 0.155898
22.74 0.0924728
22.775 0.0851601
22.81 0.128988
22.845 0.106798
22.88 0.0792847
22.915 0.120247
22.95 0.078651
22.985 0.12315
23.02 0.12484
23.055 0.123879
23.09 0.113533
23.125 0.109121
23.16 0.0867967
23.195 0.11196
23.23 0.104759
23.265 0.120842
23.3 0.111273
23.335 0.159182
23.37 0.118024
23.405 0.134439
23.44 0.140056
23.475 0.116278
23.51 0.152326
23.545 0.145473
23.58 0.136846
23.615 0.125571
23.65 0.161907
23.685 0.137778
23.72 0.127269
23.755 0.132722
23.79 0.140756
23.825 0.12322
23.86 0.153056
23.895 0.102781
23.93 0.187279
23.965 0.127917
24 0.159957
24.035 0.17178
24.07 0.151467
24.105 0.142807
24.14 0.13698
24.175 0.135527
24.21 0.165258
24.245 0.146845
24.28 0.189793
24.315 0.188947
24.35 0.198878
24.385 0.124859
24.42 0.124457
24.455 0.132837
24.49 0.148644
24.525 0.149735
24.56 0.156772
24.595 0.190422
24.63 0.17091
24.665 0.188751
24.7 0.15203
24.735 0.200034
24.77 0.151945
24.805 0.193897
24.84 0.173025
24.875 0.173767
24.91 0.178818
24.945 0.210641
24.98 0.216431
25.015 0.20259
25.05 0.249583
25.085 0.217048
25.12 0.248437
25.155 0.239344
25.19 0.220473
25.225 0.261672
25.26 0.284924
25.295 0.239486
25.33 0.287306
25.365 0.302958
25.4 0.299009
25.435 0.335608
25.47 0.28135
25.505 0.356389
25.54 0.362266
25.575 0.385942
25.61 0.409858
25.645 0.462042
25.68 0.568991
25.715 0.602069
25.75 0.657244
25.785 0.82094
25.82 0.929608
25.855 1.16834
25.89 1.46855
25.925 1.83668
25.96 2.39549
25.995 2.88315
26.03 3.67453
26.065 4.47464
26.1 5.00409
26.135 5.18941
26.17 5.30958
26.205 5.10008
26.24 4.49579
26.275 3.77356
26.31 3.08468
26.345 2.42658
26.38 1.82355
26.415 1.37064
26.45 1.0601
26.485 0.822228
26.52 0.686433
26.555 0.577932
26.59 0.428466
26.625 0.385841
26.66 0.368321
26.695 0.293807
26.73 0.258039
26.765 0.23557
26.8 0.253181
26.835 0.246621
26.87 0.198117
26.905 0.19738
26.94 0.152579
26.975 0.146673
27.01 0.167524
27.045 0.131822
27.08 0.145321
27.115 0.0842518
27.15 0.161274
27.185 0.13248
27.22 0.1279
27.255 0.122471
27.29 0.131144
27.325 0.0936737
27.36 0.102573
27.395 0.0820603
27.43 0.054842
27.465 0.0747861
27.5 0.072943
27.535 0.0620617
27.57 0.0549686
27.605 0.0886898
27.64 0.0654129
27.675 0.0885821
27.71 0.0552744
27.745 0.0453052
27.78 0.0528076
27.815 0.076277
27.85 0.0549494
27.885 0.0785158
27.92 0.0488049
27.955 0.0592141
27.99 0.0688747
28.025 0.0310073
28.06 0.0229161
28.095 0.0117719
28.13 0.0227971
28.165 0.0696088
28.2 0.0297991
28.235 0.0640983
28.27 0.062503
28.305 0.0652549
28.34 0.0265191
28.375 0.011201
28.41 0.00517972
28.445 0.0565563
28.48 0.0313306
28.515 0.0554005
28.55 0.0083637
28.585 0.0428003
28.62 0.0133225
28.655 -0.00437689
28.69 0.0516829
28.725 0.0327918
28.76 0.0195316
28.795 0.042373
28.83 0.0438121
28.865 0.0473374
28.9 0.0270983
28.935 0.0501639
28.97 0.0686409
29.005 0.051901
29.04 0.0589952
29.075 0.0160293
29.11 0.0164987
29.145 0.0493734
29.18 0.0665288
29.215 0.0439198
29.25 0.00950467
29.285 0.0389513
29.32 0.0505692
29.355 0.0455905
29.39 0.0452112
29.425 0.0524053
29.46 0.0492812
29.495 0.0778342
29.53 0.0410204
29.565 0.0261007
29.6 0.0505733
29.635 0.0962782
29.67 0.0417084
29.705 0.000131761
29.74 0.0271922
29.775 0.0168939
29.81 0.00591187
29.845 0.0185796
29.88 0.0100428
29.915 0.0210412
29.95 0.0507646
29.985 0.0305353
30.02 -0.0198844
30.055 0.0182011
30.09 0.0213848
30.125 0.047968
30.16 0.0230597
30.195 -0.00828006
30.23 -1.33199e-05
30.265 0.0385465
30.3 0.00685266
30.335 0.0200399
30.37 0.0177862
30.405 0.021051
30.44 0.0320431
30.475 0.0425031
30.51 0.00780661
30.545 0.0526927
30.58 0.0615854
30.615 0.0426864
30.65 0.0129118
30.685 0.0809758
30.72 0.0371184
30.755 0.0532865
30.79 0.106736
30.825 0.0820202
30.86 0.0670598
30.895 0.0726948
30.93 0.0378917
30.965 0.048021
31 0.0478699
31.035 0.0153978
31.07 0.036354
31.105 0.0280482
31.14 0.0369207
31.175 0.0448209
31.21 0.0164469
31.245 -0.00505398
31.28 0.0316776
31.315 0.0196768
31.35 0.0126614
31.385 0.0313434
31.42 0.00029662
31.455 -0.0110953
31.49 0.0191589
31.525 -0.00115556
31.56 0.0334003
31.595 0.0175134
31.63 0.0275463
31.665 0.0113965
31.7 0.00487707
31.735 0.0285082
31.77 0.0158608
31.805 0.0221244
31.84 -0.00482362
31.875 0.0241641
31.91 0.0234161
31.945 0.0289813
31.98 0.0159917
32.015 0.0140304
32.05 0.00737213
32.085 0.0126254
32.12 -0.00961546
32.155 -0.00234913
32.19 0.0367241
32.225 0.000416375
32.26 0.0260873
32.295 0.0131793
32.33 0.0337804
32.365 0.00522064
32.4 0.00196791
32.435 -0.0100513
32.47 0.00834774
32.505 -0.00346967
32.54 -0.000133325
32.575 -0.00462597
32.61 -0.00846549
32.645 -0.0118943
32.68 0.0338553
32.715 -0.00580934
32.75 -0.0108732
32.785 0.0181079
32.82 -0.0059473
32.855 -0.00855806
32.89 0.00586552
32.925 -0.0260859
32.96 -0.0106353
32.995 0.0218291
33.03 -0.00484695
33.065 -0.0154094
33.1 0.010791
33.135 -0.0215849
33.17 0.0119403
33.205 0.00755514
33.24 0.0144935
33.275 0.0303101
33.31 0.0262901
33.345 0.018897
33.38 0.00293238
33.415 0.00891758
33.45 0.0179042
33.485 -0.017554
33.52 0.00936582
33.555 0.00989423
33.59 -0.020355
33.625 0.00211873
33.66 -0.000614353
33.695 -0.00278346
33.73 0.00975115
33.765 -0.0190633
33.8 -0.0194657
33.835 0.0110488
33.87 -0.0106027
33.905 0.0223561
33.94 0.00691556
33.975 0.00435989
34.01 -0.0172055
34.045 -0.0017381
34.08 -0.0181029
34.115 -0.00245771
34.15 0.032457
34.185 -0.00538156
34.22 -0.00782102
34.255 -0.00565078
34.29 -0.010067
34.325 -0.00830898
34.36 0.0116394
34.395 -0.00443719
34.43 0.0195071
34.465 0.0232275
34.5 0.0184193
34.535 0.0513087
34.57 0.0474838
34.605 0.0458351
34.64 0.070602
34.675 0.0663275
34.71 0.0782936
34.745 0.0695271
34.78 0.0811017
34.815 0.0549153
34.85 0.051385
34.885 0.0302802
34.92 0.0110399
34.955 0.0349859
34.99 0.0203678
35.025 0.0252194
35.06 0.025771
35.095 -0.00241931
35.13 0.0237199
35.165 0.0333597
35.2 0.027905
35.235 0.0139399
35.27 0.0226004
35.305 0.0184597
35.34 0.00148537
35.375 0.00626807
35.41 0.028093
35.445 0.0127952
35.48 0.0107959
35.515 0.0157083
35.55 0.0319346
35.585 0.0290221
35.62 0.0157721
35.655 0.00021978
35.69 0.0170048
35.725 -0.0263047
35.76 0.000369837
35.795 0.0122717
35.83 0.0181515
35.865 0.000192662
35.9 0.0165502
35.935 0.00183918
35.97 0.000499154
36.005 0.000985889
36.04 -0.00822464
36.075 -0.00428848
36.11 0.00163682
36.145 0.0120306
36.18 -0.00854919
36.215 -0.021588
36.25 0.00789345
36.285 -0.0192331
36.32 -0.0012069
36.355 0.00667895
36.39 0.0140059
36.425 0.00683552
36.46 -0.0142914
36.495 -0.0177371
36.53 0.00352602
36.565 -0.00491502
36.6 -0.0126358
36.635 -0.0103665
36.67 -0.00268279
36.705 -0.00155383
36.74 -0.00492163
36.775 -0.0282581
36.81 -0.011687
36.845 -0.0153966
36.88 -0.00179277
36.915 -0.000169835
36.95 -0.00192568
36.985 0.00917579
37.02 -0.00392018
37.055 0.0110268
37.09 0.00565201
37.125 0.00423208
37.16 0.0278947
37.195 0.0463411
37.23 0.0608841
37.265 0.039437
37.3 0.0544542
37.335 0.0924524
37.37 0.0971952
37.405 0.101439
37.44 0.114425
37.475 0.0902552
37.51 0.0596155
37.545 0.0453382
37.58 0.0324753
37.615 0.034979
37.65 0.00988391
37.685 0.0221621
37.72 0.00187057
37.755 0.00350358
37.79 0.00370447
37.825 0.0177208
37.86 -0.00297797
37.895 0.00222883
37.93 0.0157261
37.965 0.0192216
38 0.00803916
38.035 0.0147056
38.07 0.0203852
38.105 0.038684
38.14 0.0650258
38.175 0.0986443
38.21 0.0892116
38.245 0.07069
38.28 0.0799045
38.315 0.0763026
38.35 0.055726
38.385 0.0434198
38.42 0.0563564
38.455 0.0330291
38.49 0.0626
38.525 0.0403322
38.56 0.0496763
38.595 0.0464553
38.63 0.0530106
38.665 0.0491217
38.7 0.0618102
38.735 0.0703291
38.77 0.0795045
38.805 0.118328
38.84 0.122555
38.875 0.0915509
38.91 0.13799
38.945 0.153267
38.98 0.185643
39.015 0.216167
39.05 0.244326
39.085 0.264219
39.12 0.324967
39.155 0.361809
39.19 0.393726
39.225 0.409131
39.26 0.465331
39.295 0.515011
39.33 0.552371
39.365 0.616134
39.4 0.639945
39.435 0.666102
39.47 0.672711
39.505 0.73234
39.54 0.698153
39.575 0.674528
39.61 0.711582
39.645 0.695746
39.68 0.663583
39.715 0.565551
39.75 0.606139
39.785 0.545344
39.82 0.49708
39.855 0.457128
39.89 0.41635
39.925 0.378071
39.96 0.341035
39.995 0.294651
40.03 0.281034
40.065 0.220582
40.1 0.184838
40.135 0.167428
40.17 0.134884
40.205 0.131039
40.24 0.12972
40.275 0.127177
40.31 0.090457
40.345 0.0775556
40.38 0.0583888
40.415 0.058124
40.45 0.0456824
40.485 0.0733645
40.52 0.0577199
40.555 0.0458843
40.59 0.0534422
40.625 0.063283
40.66 0.0577954
40.695 0.0446155
40.73 0.0261883
40.765 0.041352
40.8 0.0226068
40.835 0.0321543
40.87 0.0392979
40.905 0.0298019
40.94 -0.000722559
40.975 0.022412
41.01 0.0109995
41.045 0.0220788
41.08 0.0167281
41.115 0.0373085
41.15 0.0190193
41.185 0.0281088
41.22 0.0270927
41.255 0.0492673
41.29 0.040763
41.325 0.0327329
41.36 0.0488585
41.395 0.0447843
41.43 0.0376146
41.465 0.0425257
41.5 0.0267728
41.535 0.0253551
41.57 0.020447
41.605 0.00996761
41.64 0.000240478
41.675 0.0220753
41.71 0.00791504
41.745 0.0295652
41.78 -0.00165896
41.815 0.0236535
41.85 0.00772933
41.885 0.0140791
41.92 0.000183757
41.955 -0.0131181
41.99 0.00691487
42.025 0.0379358
42.06 0.0179463
42.095 0.00623313
42.13 -0.000244348
42.165 0.00355018
42.2 0.00659751
42.235 0.028866
42.27 -0.00533714
42.305 0.015319
42.34 -0.00309391
42.375 -0.00486617
42.41 -0.00065687
42.445 -0.00414709
42.48 -0.00889922
42.515 0.0261841
42.55 0.0175891
42.585 0.00623795
42.62 0.0335951
42.655 0.0193726
42.69 0.000634412
42.725 0.0119501
42.76 -0.00746042
42.795 0.00754798
42.83 0.00869091
42.865 0.00374991
42.9 0.043365
42.935 0.0191066
42.97 0.0334904
43.005 0.025486
43.04 0.00569431
43.075 0.0247249
43.11 0.0151003
43.145 0.0198366
43.18 0.0184254
43.215 0.0168729
43.25 0.0405172
43.285 0.0339824
43.32 0.0535678
43.355 0.0367928
43.39 0.0544217
43.425 0.0179004
43.46 0.0300742
43.495 0.0136936
43.53 0.0286052
43.565 0.0213852
43.6 0.0616877
43.635 0.0298655
43.67 0.0188649
43.705 0.0153041
43.74 0.0277705
43.775 0.0087628
43.81 0.00289593
43.845 0.0320254
43.88 0.0418733
43.915 0.0216551
43.95 0.0157329
43.985 0.0270804
44.02 0.042949
44.055 0.0196174
44.09 0.045257
44.125 0.0177917
44.16 0.0283338
44.195 0.0312924
44.23 0.0533962
44.265 0.0306989
44.3 -0.000388497
44.335 0.0202531
44.37 0.00990444
44.405 0.0345222
44.44 -0.0123369
44.475 0.0382032
44.51 -0.00038938
44.545 0.0257952
44.58 0.011473
44.615 -0.00342207
44.65 0.0159649
44.685 0.0169225
44.72 -0.00169578
44.755 -0.0112236
44.79 0.0129544
44.825 -0.00612326
44.86 0.0129309
44.895 0.0255304
44.93 0.00238972
44.965 -0.0148261
45 -0.0121568
45.035 0.0233702
45.07 0.0288034
45.105 0.0182125
45.14 0.0231358
45.175 0.0073343
45.21 -0.0248193
45.245 0.0478196
45.28 0.0209335
45.315 0.00187653
45.35 0.0103664
45.385 0.029119
45.42 0.0143013
45.455 0.0155735
45.49 0.0146694
45.525 0.00863444
45.56 0.0528509
45.595 0.0251161
45.63 -0.00733312
45.665 0.00408181
45.7 -0.00633933
45.735 0.0196099
45.77 0.0298404
45.805 0.0431838
45.84 0.051261
45.875 0.0425617
45.91 0.0417805
45.945 0.0608485
45.98 0.0498588
46.015 0.0605519
46.05 0.0605563
46.085 0.0875619
46.12 0.0734807
46.155 0.0781941
46.19 0.0626979
46.225 0.0496347
46.26 0.0549362
46.295 0.0719948
46.33 0.0532328
46.365 0.0548754
46.4 0.0353082
46.435 0.0408279
46.47 0.0306245
46.505 0.0380825
46.54 0.0136131
46.575 0.0196655
46.61 0.0407366
46.645 0.0348379
46.68 0.0219317
46.715 0.0369782
46.75 0.0408193
46.785 0.0362468
46.82 0.0230765
46.855 0.0372327
46.89 0.0140977
46.925 0.0245479
46.96 0.0304905
46.995 0.0215358
47.03 0.00503172
47.065 0.00963231
47.1 0.00478569
47.135 0.00738034
47.17 -0.00772509
47.205 0.00323456
47.24 0.00971222
47.275 0.00667459
47.31 -0.000723112
47.345 0.0150325
47.38 -0.00816154
47.415 -0.00418981
47.45 0.00803076
47.485 0.00981355
47.52 0.00386335
47.555 -0.0018498
47.59 0.0188616
47.625 0.0202848
47.66 0.0447184
47.695 0.043045
47.73 0.0215855
47.765 0.0346537
47.8 0.0440919
47.835 0.0377996
47.87 0.0378833
47.905 0.0281068
47.94 0.0369918
47.975 0.0153507
48.01 0.016479
48.045 0.000253159
48.08 0.00222311
48.115 0.0226364
48.15 0.00218529
48.185 -0.0223152
48.22 0.00627403
48.255 0.0233658
48.29 0.0351037
48.325 0.0260292
48.36 0.0223827
48.395 0.0380119
48.43 0.00853618
48.465 0.0439637
48.5 0.0541981
48.535 0.0655694
48.57 0.103764
48.605 0.119047
48.64 0.180002
48.675 0.249941
48.71 0.41659
48.745 0.498638
48.78 0.524642
48.815 0.492645
48.85 0.441988
48.885 0.323216
48.92 0.232249
48.955 0.145584
48.99 0.0949549
49.025 0.0611967
49.06 0.0190096
49.095 0.0283026
49.13 0.00288343
49.165 0.00104374
49.2 -0.00251834
49.235 -0.00331217
49.27 0.00751099
49.305 0.0177213
49.34 0.00911773
49.375 0.00652792
49.41 -0.00678013
49.445 0.0194476
49.48 0.00673661
49.515 0.0121061
49.55 0.0240744
49.585 0.0153282
49.62 0.0210717
49.655 0.012989
49.69 0.0146134
49.725 0.0149692
49.76 0.0261749
49.795 0.0239534
49.83 0.0181453
49.865 0.0257267
49.9 0.035572
49.935 0.0302125
49.97 0.0293625
50.005 0.0289769
50.04 0.0137752
50.075 0.0230612
50.11 0.0105917
50.145 0.0149076
50.18 0.00774177
50.215 -0.014424
50.25 0.011486
50.285 -0.00113375
50.32 0.00821919
50.355 0.00896266
50.39 -0.00445258
50.425 0.00867969
50.46 -0.000469478
50.495 -0.00504603
50.53 0.0131145
50.565 0.00255147
50.6 0.010097
50.635 0.00705848
50.67 0.000217709
50.705 -0.00681532
50.74 0.00287821
50.775 -0.0115628
50.81 -0.00215073
50.845 0.00511198
50.88 -0.0174549
50.915 -0.0148227
50.95 -0.0027241
50.985 0.00380578
51.02 0.00481927
51.055 -0.0220568
51.09 0.00243308
51.125 0.017404
51.16 -0.0072988
51.195 0.00476922
51.23 -0.00219658
51.265 -0.0166774
51.3 0.00469476
51.335 0.00169539
51.37 0.00168525
51.405 -0.00378713
51.44 0.00289482
51.475 0.00369554
51.51 -0.00116985
51.545 -0.00551168
51.58 -0.00735812
51.615 -0.00385737
51.65 -0.0116796
51.685 0.0105232
51.72 -0.0123479
51.755 -0.00268572
51.79 -0.00812145
51.825 -0.0172989
51.86 -0.00793147
51.895 -0.0149087
51.93 0.0112252
51.965 -0.00207239
52 -0.00640425
52.035 -0.00977063
52.07 -0.00655511
52.105 -0.00596517
52.14 0.0153933
52.175 -0.00566745
52.21 0.0149684
52.245 0.00495214
52.28 0.0119998
52.315 0.00286733
52.35 0.000993988
52.385 -0.00614033
52.42 0.0170361
52.455 0.0207416
52.49 0.0189142
52.525 0.0170872
52.56 0.0477115
52.595 0.045854
52.63 0.067029
52.665 0.0855777
52.7 0.104844
52.735 0.115444
52.77 0.134477
52.805 0.142247
52.84 0.162902
52.875 0.189759
52.91 0.168648
52.945 0.148743
52.98 0.131381
53.015 0.0808944
53.05 0.0659025
53.085 0.0443949
53.12 0.0191977
53.155 0.00805421
53.19 -0.0108809
53.225 0.00641067
53.26 0.00320643
53.295 -0.0147476
53.33 -0.0105304
53.365 -0.0186893
53.4 -0.00878461
53.435 -0.00171071
53.47 -0.00874546
53.505 -0.00749123
53.54 -0.0128559
53.575 0.00176515
53.61 -0.00441191
53.645 -0.0133425
53.68 0.00299869
53.715 -0.00247356
53.75 0.00216134
53.785 -0.0129506
53.82 -0.00896765
53.855 -0.00638549
53.89 -0.00349428
53.925 -0.00703391
53.96 -0.00770741
53.995 0.0215101
54.03 -0.00410428
54.065 0.0154928
54.1 0.0183555
54.135 0.0120584
54.17 0.00191059
54.205 0.005208
54.24 0.0159011
54.275 0.0280616
54.31 0.0130658
54.345 0.0219962
54.38 0.0372774
54.415 0.0706529
54.45 0.0597758
54.485 0.0825723
54.52 0.13137
54.555 0.127145
54.59 0.155305
54.625 0.166905
54.66 0.16943
54.695 0.186618
54.73 0.181811
54.765 0.17828
54.8 0.152623
54.835 0.137846
54.87 0.133788
54.905 0.127337
54.94 0.107115
54.975 0.108575
55.01 0.123997
55.045 0.113887
55.08 0.11263
55.115 0.104
55.15 0.14482
55.185 0.131203
55.22 0.150133
55.255 0.170042
55.29 0.183251
55.325 0.204859
55.36 0.213166
55.395 0.229011
55.43 0.252753
55.465 0.241296
55.5 0.229959
55.535 0.263082
55.57 0.265769
55.605 0.238963
55.64 0.232827
55.675 0.230501
55.71 0.216786
55.745 0.197095
55.78 0.221237
55.815 0.182995
55.85 0.170912
55.885 0.153187
55.92 0.148073
55.955 0.138975
55.99 0.112293
56.025 0.101525
56.06 0.0921764
56.095 0.087859
56.13 0.0659342
56.165 0.0577638
56.2 0.038231
56.235 0.0371011
56.27 0.0317796
56.305 0.0297364
56.34 0.0357148
56.375 0.0161909
56.41 0.0126917
56.445 0.0146538
56.48 0.0197766
56.515 0.0228415
56.55 0.00716068
56.585 0.00858456
56.62 0.0150937
56.655 -0.00230976
56.69 -0.010187
56.725 0.030113
56.76 0.017594
56.795 0.0156109
56.83 -0.00616735
56.865 -0.00545246
56.9 0.0174795
56.935 0.0317543
56.97 0.0139244
57.005 0.0163289
57.04 0.0238662
57.075 0.0137037
57.11 0.0157576
57.145 0.00801168
57.18 0.0248054
57.215 0.0133602
57.25 0.0140625
57.285 0.0181864
57.32 0.0190639
57.355 0.00759338
57.39 0.0137092
57.425 -0.000134498
57.46 -0.00706794
57.495 -0.00235083
57.53 0.0133129
57.565 0.00287478
57.6 0.0144626
57.635 0.00136645
57.67 -0.0176017
57.705 -0.00765689
57.74 0.0171544
57.775 0.00145374
57.81 -0.00518407
57.845 -0.00152032
57.88 0.00410109
57.915 -0.00774255
57.95 -0.00649731
57.985 0.00715176
58.02 0.0125607
58.055 -0.00110481
58.09 0.0114766
58.125 0.00437381
58.16 -0.00805554
58.195 -0.0137294
58.23 0.00247462
58.265 0.0052507
58.3 0.00697307
58.335 0.0266046
58.37 0.02513
58.405 0.010832
58.44 0.00524643
58.475 0.0225518
58.51 0.0208049
58.545 -0.00999981
58.58 0.0167372
58.615 0.0266715
58.65 0.0114359
58.685 0.0161678
58.72 0.0258869
58.755 -0.00101139
58.79 0.0351749
58.825 0.0160742
58.86 0.0608581
58.895 0.0300013
58.93 0.0459364
58.965 0.0938265
59 0.0840883
59.035 0.0693238
59.07 0.105159
59.105 0.114738
59.14 0.144876
59.175 0.167567
59.21 0.210139
59.245 0.329764
59.28 0.430606
59.315 0.549345
59.35 0.663108
59.385 0.680458
59.42 0.675988
59.455 0.630586
59.49 0.527669
59.525 0.430368
59.56 0.328624
59.595 0.254266
59.63 0.191353
59.665 0.130659
59.7 0.102582
59.735 0.0610878
59.77 0.052177
59.805 0.0297936
59.84 0.0242524
59.875 0.0209982
59.91 0.0217978
59.945 0.00620584
59.98 0.0168948
60.015 0.0153506
60.05 0.0101301
60.085 0.00142682
60.12 0.0162306
60.155 0.00168139
60.19 0.00457688
60.225 0.0216637
60.26 -0.00222188
60.295 -0.00718104
60.33 0.00609779
60.365 0.0193529
60.4 0.0509845
60.435 0.0285176
60.47 0.012725
60.505 0.0226558
60.54 0.0255486
60.575 0.0196031
60.61 0.0117666
60.645 0.00688492
60.68 0.017988
60.715 -0.00705549
60.75 0.0153066
60.785 0.0018267
60.82 0.0151991
60.855 -0.00310504
60.89 -0.000890114
60.925 0.0125443
60.96 -0.00206506
60.995 0.00190217
61.03 0.00317288
61.065 0.00724617
61.1 0.0114002
61.135 -0.00297591
61.17 0.00631637
61.205 0.00855296
61.24 0.0226589
61.275 0.0301882
61.31 -0.00454275
61.345 -0.0137909
61.38 0.0218565
61.415 0.0122064
61.45 -0.00779873
61.485 0.00183615
61.52 0.0100675
61.555 0.024366
61.59 0.0249039
61.625 0.00403139
61.66 0.00255034
61.695 0.00993698
61.73 0.00632515
61.765 0.0137059
61.8 0.0320377
61.835 0.012004
61.87 0.0338026
61.905 0.0301386
61.94 0.0300532
61.975 0.0181287
62.01 0.0493505
62.045 0.0522741
62.08 0.0581656
62.115 0.0517336
62.15 0.068826
62.185 0.0685957
62.22 0.0805541
62.255 0.0950398
62.29 0.112582
62.325 0.0934328
62.36 0.109428
62.395 0.111589
62.43 0.102427
62.465 0.108631
62.5 0.112891
62.535 0.110237
62.57 0.108551
62.605 0.111431
62.64 0.0900954
62.675 0.0952258
62.71 0.111563
62.745 0.0925549
62.78 0.0784779
62.815 0.0591463
62.85 0.0696334
62.885 0.0520878
62.92 0.0472093
62.955 0.0372929
62.99 0.0418833
63.025 0.046797
63.06 0.0287281
63.095 0.049221
63.13 0.0142057
63.165 0.0314285
63.2 0.0196014
63.235 0.0232331
63.27 0.0309993
63.305 0.0144545
63.34 0.0245931
63.375 0.0210325
63.41 0.0119018
63.445 0.0170679
63.48 0.00294405
63.515 -0.00609861
63.55 0.010263
63.585 0.00313502
63.62 0.00621628
63.655 0.00302915
63.69 -0.00453696
63.725 0.00960813
63.76 -0.00314234
63.795 -0.00127228
63.83 0.00499183
63.865 0.010836
63.9 0.00544624
63.935 0.0052793
63.97 -0.00116361
64.005 0.00179591
64.04 0.00918415
64.075 0.0123318
64.11 0.0361304
64.145 0.00506657
64.18 -0.00190649
64.215 -1.25062e-05
64.25 0.0111746
64.285 0.0129187
64.32 -0.00769031
64.355 -0.00337511
64.39 -0.00844616
64.425 -0.0140547
64.46 0.0103531
64.495 0.000588017
64.53 0.00618419
64.565 -0.000555911
64.6 0.00136156
64.635 0.0106426
64.67 0.00723252
64.705 0.00977215
64.74 -0.00627262
64.775 0.012163
64.81 0.0267833
64.845 0.0469082
64.88 0.00861407
64.915 0.0203326
64.95 0.0408031
64.985 0.0572535
65.02 0.0351086
65.055 0.042646
65.09 0.0452967
65.125 0.0311745
65.16 0.0330776
65.195 0.0473197
65.23 0.0221859
65.265 0.0335664
65.3 0.0323029
65.335 0.0327781
65.37 0.0219174
65.405 0.017292
65.44 0.00438999
65.475 0.00775468
65.51 -0.00165864
65.545 0.02024
65.58 0.0281743
65.615 -0.000716946
65.65 0.0140574
65.685 -0.00201497
65.72 0.00732886
65.755 0.00407209
65.79 0.0177889
65.825 -0.0171587
65.86 0.00749783
65.895 -0.00659915
65.93 -0.00246608
65.965 -0.00763992
66 -0.00675297
66.035 0.0125117
66.07 0.00677077
66.105 -0.00885588
66.14 -0.00798767
66.175 -0.0116398
66.21 0.00167193
66.245 -0.00551854
66.28 0.01217
66.315 0.00416745
66.35 -0.00651546
66.385 0.00813053
66.42 -0.00590016
66.455 0.0155694
66.49 -0.0140915
66.525 -0.0044225
66.56 -0.00589128
66.595 -0.00810057
66.62 -0.0195912