File: data/xrd/xy/2018-07-19T17_25_57.788230+00_00_LBL.xy
'Id: "" Comment: "Integrate frame Perovskite0_03_001.gfrmwith cursor Wedge Cursor #1" Operator: "UC Berkeley" Anode: "Co" Scantype: "TwoTheta" TimePerStep: "900"
14.21 -0.0166424
14.25 0.000710119
14.29 0.0200643
14.33 -0.0160705
14.37 0.00292742
14.41 0.0276846
14.45 0.021693
14.49 0.0120095
14.53 0.0533947
14.57 -0.00674261
14.61 0.0441495
14.65 0.0537524
14.69 0.050202
14.73 0.0403694
14.77 0.0410169
14.81 0.0349026
14.85 0.0350561
14.89 0.0146579
14.93 0.0363283
14.97 0.00969694
15.01 0.0536108
15.05 0.00122064
15.09 -0.009102
15.13 0.00640002
15.17 0.00920488
15.21 0.00486765
15.25 0.0448331
15.29 0.0261947
15.33 0.0285653
15.37 0.0233874
15.41 0.0225693
15.45 0.00695215
15.49 0.0151544
15.53 0.0357229
15.57 0.0156905
15.61 0.0212036
15.65 0.000659067
15.69 0.0226681
15.73 0.00493506
15.77 0.0129327
15.81 0.0322318
15.85 0.0459557
15.89 0.00636806
15.93 0.0116223
15.97 0.0348098
16.01 0.0319887
16.05 0.0170867
16.09 0.00919771
16.13 0.00853654
16.17 0.0126444
16.21 0.027175
16.25 -0.00558167
16.29 0.0241698
16.33 0.0299409
16.37 0.0138624
16.41 0.0304532
16.45 0.0211426
16.49 0.0124408
16.53 0.0150656
16.57 0.0251425
16.61 0.0243901
16.65 0.0255279
16.69 0.00864759
16.73 0.0115459
16.77 0.000111781
16.81 0.0242094
16.85 0.0275546
16.89 0.00816555
16.93 0.0156042
16.97 0.031071
17.01 0.0256554
17.05 -0.00265648
17.09 0.0156002
17.13 0.0521937
17.17 0.0212381
17.21 0.0106703
17.25 0.0214118
17.29 0.0281852
17.33 0.0192036
17.37 0.0264917
17.41 0.0104318
17.45 0.0176699
17.49 0.0098316
17.53 0.00982454
17.57 0.0278608
17.61 0.0278833
17.65 0.00494438
17.69 0.00209387
17.73 0.0420687
17.77 0.0202471
17.81 0.0184433
17.85 0.00680344
17.89 0.0314414
17.93 0.0450366
17.97 0.0203594
18.01 0.00463976
18.05 0.0300962
18.09 0.0176025
18.13 0.0329578
18.17 0.0324021
18.21 0.06551
18.25 0.0414984
18.29 0.0170712
18.33 0.0519208
18.37 0.0600194
18.41 0.0357719
18.45 0.0337175
18.49 0.0294937
18.53 0.0228252
18.57 0.014907
18.61 0.0252805
18.65 -0.00513105
18.69 0.00876135
18.73 0.00482049
18.77 0.00356105
18.81 0.0203197
18.85 0.0141048
18.89 0.0259354
18.93 0.018736
18.97 0.0151358
19.01 0.00797408
19.05 0.00757436
19.09 0.0226318
19.13 0.0325145
19.17 0.0114553
19.21 0.0247944
19.25 0.0267895
19.29 0.0175079
19.33 0.00359668
19.37 0.0201255
19.41 0.0136833
19.45 -0.00351302
19.49 0.0211412
19.53 0.0250352
19.57 0.0243064
19.61 -0.00532709
19.65 0.0125049
19.69 -0.0032548
19.73 0.0241158
19.77 0.0110625
19.81 0.0213683
19.85 0.013427
19.89 0.0392415
19.93 0.00773605
19.97 0.00411988
20.01 0.0305948
20.05 0.0129002
20.09 0.00695248
20.13 0.0267838
20.17 0.0216943
20.21 0.0132861
20.25 0.0102703
20.29 0.0203499
20.33 0.0402617
20.37 0.0187275
20.41 0.0290762
20.45 0.00207476
20.49 0.017012
20.53 0.0257698
20.57 0.0171185
20.61 0.0222632
20.65 0.0168059
20.69 0.0106169
20.73 0.00322297
20.77 0.0248425
20.81 0.0233013
20.85 0.0171399
20.89 0.0284181
20.93 0.0193043
20.97 0.0223166
21.01 0.00273511
21.05 0.0209028
21.09 0.0415405
21.13 0.0235399
21.17 0.0295402
21.21 -0.00218811
21.25 0.0305825
21.29 0.0216417
21.33 0.0304478
21.37 0.0313699
21.41 0.0152762
21.45 0.0115331
21.49 0.00444135
21.53 0.0196646
21.57 0.00406888
21.61 -0.00373429
21.65 0.0181072
21.69 0.0288508
21.73 0.0373989
21.77 0.0259119
21.81 0.0123153
21.85 0.0174059
21.89 0.00944245
21.93 0.00974816
21.97 0.035625
22.01 0.0141427
22.05 0.0150145
22.09 0.00348133
22.13 0.0104054
22.17 0.0173878
22.21 0.0154553
22.25 0.0323953
22.29 0.0325635
22.33 0.0191924
22.37 0.0274885
22.41 0.0274984
22.45 0.0149078
22.49 0.0327955
22.53 0.0267085
22.57 0.0288705
22.61 0.0298896
22.65 0.0113943
22.69 0.0324363
22.73 0.0444842
22.77 0.0608091
22.81 0.0303878
22.85 0.0433977
22.89 0.0498875
22.93 0.00915554
22.97 0.0437773
23.01 0.022405
23.05 0.00393123
23.09 0.0187233
23.13 0.0100869
23.17 0.0133186
23.21 0.0426591
23.25 0.0195812
23.29 0.0152577
23.33 0.0170691
23.37 0.00148422
23.41 -0.00317367
23.45 0.0274323
23.49 0.0158408
23.53 0.0287057
23.57 0.0106774
23.61 0.020693
23.65 0.0200041
23.69 0.0372231
23.73 0.0211918
23.77 0.0351054
23.81 0.031873
23.85 0.0173561
23.89 0.0178859
23.93 0.0129103
23.97 0.0141867
24.01 0.0189393
24.05 -0.00319114
24.09 0.00652391
24.13 0.0423751
24.17 0.0363496
24.21 0.0287696
24.25 0.00423085
24.29 0.0158894
24.33 0.0258668
24.37 0.0066959
24.41 0.0339152
24.45 0.0201125
24.49 0.0295288
24.53 0.0272783
24.57 0.00643076
24.61 0.0103247
24.65 0.0388865
24.69 0.0444668
24.73 0.0129174
24.77 -0.014899
24.81 0.0261695
24.85 0.0115661
24.89 0.0124787
24.93 0.0234355
24.97 -0.0061275
25.01 0.0278358
25.05 0.0208285
25.09 0.022658
25.13 0.0186572
25.17 0.0125439
25.21 0.0201802
25.25 0.0182008
25.29 0.0311275
25.33 0.0153753
25.37 0.0286056
25.41 0.024824
25.45 0.0407667
25.49 0.0376865
25.53 0.0491455
25.57 0.0622526
25.61 0.0825115
25.65 0.0678483
25.69 0.0728935
25.73 0.0525365
25.77 0.0657878
25.81 0.0411125
25.85 0.0390836
25.89 0.0538905
25.93 0.0574122
25.97 0.0854286
26.01 0.0852121
26.05 0.0745531
26.09 0.111396
26.13 0.117859
26.17 0.146102
26.21 0.165973
26.25 0.173663
26.29 0.219347
26.33 0.206216
26.37 0.213043
26.41 0.192784
26.45 0.15208
26.49 0.103229
26.53 0.104056
26.57 0.0808948
26.61 0.0700719
26.65 0.0447462
26.69 0.0429858
26.73 0.0453145
26.77 0.022093
26.81 0.0356854
26.85 0.024028
26.89 0.0169693
26.93 0.0052577
26.97 0.0204022
27.01 0.0237118
27.05 0.00830906
27.09 0.0110784
27.13 0.0187815
27.17 0.0333692
27.21 0.0257383
27.25 0.0150016
27.29 0.0153657
27.33 0.011549
27.37 0.0142696
27.41 0.0238261
27.45 0.0248868
27.49 0.0201068
27.53 0.0181543
27.57 0.0230569
27.61 0.0185014
27.65 0.0206818
27.69 0.0191735
27.73 0.018472
27.77 0.0151146
27.81 0.00784561
27.85 -0.000203823
27.89 0.00877735
27.93 0.0199924
27.97 0.00712963
28.01 0.00356533
28.05 0.0016279
28.09 -0.0039309
28.13 -0.00485262
28.17 0.0197904
28.21 0.0179301
28.25 0.0213063
28.29 0.00270187
28.33 0.0130769
28.37 0.0241322
28.41 0.0143798
28.45 0.0154844
28.49 0.0356657
28.53 0.00319302
28.57 0.0154365
28.61 0.0174567
28.65 0.0165193
28.69 0.0434923
28.73 0.0628063
28.77 0.0836875
28.81 0.0926993
28.85 0.113577
28.89 0.152348
28.93 0.122028
28.97 0.131152
29.01 0.113092
29.05 0.110668
29.09 0.0867495
29.13 0.109345
29.17 0.154243
29.21 0.191441
29.25 0.244078
29.29 0.292512
29.33 0.354516
29.37 0.422629
29.41 0.423378
29.45 0.389337
29.49 0.33536
29.53 0.241929
29.57 0.207893
29.61 0.146392
29.65 0.125483
29.69 0.0883897
29.73 0.0832578
29.77 0.0732649
29.81 0.0689097
29.85 0.0577536
29.89 0.0446864
29.93 0.0648303
29.97 0.069789
30.01 0.0683781
30.05 0.119355
30.09 0.131678
30.13 0.152847
30.17 0.14162
30.21 0.160209
30.25 0.112566
30.29 0.0799365
30.33 0.0778799
30.37 0.044145
30.41 0.0400138
30.45 0.0244094
30.49 0.0410869
30.53 0.0145695
30.57 0.0332446
30.61 0.0101931
30.65 0.00483226
30.69 0.00916166
30.73 0.0151832
30.77 0.0154241
30.81 0.0189775
30.85 0.00330157
30.89 0.025122
30.93 0.0154075
30.97 0.00498423
31.01 0.00908885
31.05 0.0073
31.09 -0.00109804
31.13 0.0105102
31.17 0.00976734
31.21 -0.00999346
31.25 0.0231862
31.29 0.0176212
31.33 0.00446456
31.37 0.00572772
31.41 0.000759532
31.45 0.0143875
31.49 0.00318787
31.53 0.0048344
31.57 0.0105128
31.61 -0.000356714
31.65 0.0103076
31.69 0.0119996
31.73 0.00189296
31.77 0.00392313
31.81 0.0113476
31.85 -0.00410382
31.89 0.00292182
31.93 0.00582126
31.97 -0.00410886
32.01 -0.00620149
32.05 -0.00660798
32.09 -0.00179857
32.13 0.000788107
32.17 -0.00344536
32.21 -0.00199812
32.25 0.00622333
32.29 0.00957639
32.33 0.000601102
32.37 0.0061194
32.41 -0.00376694
32.45 0.00682297
32.49 0.00171376
32.53 -0.00628225
32.57 0.0114028
32.61 -0.00468093
32.65 0.0031975
32.69 0.0114437
32.73 0.00482608
32.77 0.0050791
32.81 0.00715977
32.85 0.011488
32.89 0.00630359
32.93 -0.00591939
32.97 0.0057069
33.01 0.00609917
33.05 0.00810166
33.09 0.00105913
33.13 0.0141688
33.17 0.0110661
33.21 -0.00630203
33.25 0.00328865
33.29 0.00532786
33.33 0.00775331
33.37 0.00268722
33.41 0.00900329
33.45 0.00803799
33.49 0.0106015
33.53 0.0174069
33.57 0.0101406
33.61 -0.00336844
33.65 0.00409142
33.69 0.000130635
33.73 0.0083087
33.77 0.00462855
33.81 0.0158118
33.85 0.013953
33.89 0.0167446
33.93 0.0151394
33.97 0.0178421
34.01 0.0178024
34.05 0.0183223
34.09 0.017543
34.13 0.0276323
34.17 0.0267356
34.21 0.0433699
34.25 0.0547637
34.29 0.0666886
34.33 0.0949249
34.37 0.120301
34.41 0.159779
34.45 0.194288
34.49 0.270227
34.53 0.317992
34.57 0.36017
34.61 0.358278
34.65 0.309683
34.69 0.252819
34.73 0.19814
34.77 0.153868
34.81 0.0966975
34.85 0.0855978
34.89 0.0715572
34.93 0.0665988
34.97 0.0657111
35.01 0.0823068
35.05 0.0764077
35.09 0.0857894
35.13 0.0915928
35.17 0.104876
35.21 0.0994111
35.25 0.0871076
35.29 0.0675481
35.33 0.0637972
35.37 0.0508263
35.41 0.0321791
35.45 0.0386547
35.49 0.0352981
35.53 0.0268842
35.57 0.0266855
35.61 0.0150009
35.65 0.0224522
35.69 0.0152782
35.73 0.013733
35.77 0.0183292
35.81 0.0198644
35.85 0.0102307
35.89 0.0187839
35.93 0.0086774
35.97 0.00306451
36.01 0.00453746
36.05 0.0188729
36.09 0.0106661
36.13 0.0121686
36.17 0.008991
36.21 0.00426936
36.25 0.00918119
36.29 0.0180631
36.33 0.000102083
36.37 0.0169728
36.41 0.0143783
36.45 0.0111673
36.49 0.0240725
36.53 0.0203688
36.57 0.0153123
36.61 0.0197539
36.65 0.0292518
36.69 0.0339585
36.73 0.029176
36.77 0.0579584
36.81 0.0552022
36.85 0.0805748
36.89 0.106475
36.93 0.1423
36.97 0.18049
37.01 0.235244
37.05 0.281586
37.09 0.302373
37.13 0.320867
37.17 0.299918
37.21 0.2716
37.25 0.220441
37.29 0.186735
37.33 0.139678
37.37 0.102629
37.41 0.0930689
37.45 0.0789764
37.49 0.0769349
37.53 0.073259
37.57 0.0707114
37.61 0.0522929
37.65 0.0400229
37.69 0.0400772
37.73 0.0300009
37.77 0.0219577
37.81 0.0334102
37.85 0.0192697
37.89 0.0128572
37.93 0.0131115
37.97 0.0135791
38.01 0.00649973
38.05 0.0122644
38.09 0.00324705
38.13 0.0145077
38.17 0.0180287
38.21 0.00247507
38.25 0.00600829
38.29 -0.00820159
38.33 0.00629177
38.37 0.0129515
38.41 0.0123315
38.45 0.00461175
38.49 0.0037583
38.53 0.00745865
38.57 0.00945059
38.61 0.00277117
38.65 0.00958784
38.69 0.00802143
38.73 0.010103
38.77 0.0179853
38.81 0.00842859
38.85 0.00866015
38.89 0.0045087
38.93 0.0173098
38.97 0.0163355
39.01 0.0157717
39.05 0.0186362
39.09 0.00660744
39.13 0.0113457
39.17 0.0122625
39.21 0.0176477
39.25 0.0265642
39.29 0.0148748
39.33 0.0338541
39.37 0.0357649
39.41 0.0362102
39.45 0.0347872
39.49 0.0385739
39.53 0.0455359
39.57 0.049939
39.61 0.0547045
39.65 0.0724983
39.69 0.0573118
39.73 0.0684604
39.77 0.0733935
39.81 0.0863208
39.85 0.0891999
39.89 0.0989707
39.93 0.11589
39.97 0.135206
40.01 0.116174
40.05 0.110047
40.09 0.104432
40.13 0.0762682
40.17 0.0670673
40.21 0.0514946
40.25 0.0341092
40.29 0.0336222
40.33 0.0293971
40.37 0.0185388
40.41 0.0139654
40.45 0.00461304
40.49 0.0062562
40.53 0.0112349
40.57 0.00869893
40.61 0.00941677
40.65 0.00731078
40.69 0.00303847
40.73 0.00550815
40.77 0.00621567
40.81 0.00369618
40.85 0.00580649
40.89 -0.00171395
40.93 -0.00225096
40.97 -0.00326686
41.01 0.007209
41.05 0.014375
41.09 0.00796427
41.13 0.0331169
41.17 0.0319559
41.21 0.0220818
41.25 0.0291337
41.29 0.0324376
41.33 0.0178624
41.37 0.0133141
41.41 0.00886004
41.45 -0.00161296
41.49 0.00544177
41.53 -0.000918878
41.57 0.00731261
41.61 0.0101116
41.65 0.00440507
41.69 0.00689718
41.73 -0.00207691
41.77 0.00616912
41.81 0.00286313
41.85 0.0077042
41.89 0.00600704
41.93 -0.000497119
41.97 0.000592194
42.01 -0.00314833
42.05 0.00368933
42.09 -0.000173251
42.13 -0.00151587
42.17 0.00950846
42.21 -0.00338034
42.25 -0.00439542
42.29 -0.00444427
42.33 0.00157672
42.37 0.00168845
42.41 -0.00302622
42.45 0.0041474
42.49 0.00776897
42.53 -0.00648234
42.57 -0.0070867
42.61 -0.00364436
42.65 0.0010342
42.69 -0.00370233
42.73 -0.00109114
42.77 -0.00553852
42.81 -0.00388695
42.85 -0.00559502
42.89 0.0118373
42.93 -0.00228375
42.97 0.00490801
43.01 -0.0111309
43.05 0.00308549
43.09 0.00479797
43.13 0.000633557
43.17 0.00247226
43.21 -0.00339929
43.25 0.00564689
43.29 0.0054408
43.33 0.00489722
43.37 0.0141873
43.41 0.00853061
43.45 0.00858307
43.49 0.0112132
43.53 0.0161856
43.57 0.017455
43.61 0.0138367
43.65 0.0285839
43.69 0.0104526
43.73 0.0260204
43.77 0.0352999
43.81 0.0394493
43.85 0.0488198
43.89 0.059607
43.93 0.0714433
43.97 0.0790275
44.01 0.0849703
44.05 0.0691505
44.09 0.0610718
44.13 0.0748367
44.17 0.0500034
44.21 0.0558979
44.25 0.0421168
44.29 0.019289
44.33 0.0271672
44.37 0.0170123
44.41 0.0236077
44.45 0.0185087
44.49 0.0161436
44.53 0.0169979
44.57 0.00913711
44.61 0.0160908
44.65 0.00661305
44.69 0.010223
44.73 -0.0036074
44.77 0.0120272
44.81 0.00649267
44.85 0.00917405
44.89 0.0132446
44.93 0.0116919
44.97 0.027919
45.01 0.020512
45.05 0.0269189
45.09 0.0269126
45.13 0.02652
45.17 0.0319262
45.21 0.0191433
45.25 0.0329535
45.29 0.025266
45.33 0.00975673
45.37 0.00869728
45.41 0.0145081
45.45 0.0169293
45.49 0.0110582
45.53 0.0150117
45.57 0.00464735
45.61 0.0226074
45.65 0.0172961
45.69 0.0202878
45.73 0.0241468
45.77 0.0196535
45.81 0.0274308
45.85 0.0296765
45.89 0.03852
45.93 0.059615
45.97 0.0635029
46.01 0.090508
46.05 0.0987694
46.09 0.122089
46.13 0.136022
46.17 0.137507
46.21 0.15234
46.25 0.157905
46.29 0.129048
46.33 0.119524
46.37 0.12773
46.41 0.111809
46.45 0.117825
46.49 0.112088
46.53 0.113998
46.57 0.106691
46.61 0.0992578
46.65 0.0998545
46.69 0.101253
46.73 0.0912593
46.77 0.0794638
46.81 0.0719654
46.85 0.061399
46.89 0.0491611
46.93 0.0445108
46.97 0.0409816
47.01 0.0366152
47.05 0.0283857
47.09 0.0279031
47.13 0.0236433
47.17 0.0299094
47.21 0.0363021
47.25 0.0299637
47.29 0.0411426
47.33 0.0393659
47.37 0.0353534
47.41 0.0471221
47.45 0.0569922
47.49 0.0718772
47.53 0.0985701
47.57 0.0884383
47.61 0.106059
47.65 0.101714
47.69 0.100206
47.73 0.087116
47.77 0.0785693
47.81 0.0708421
47.85 0.0690571
47.89 0.0693693
47.93 0.0569035
47.97 0.0524528
48.01 0.0472816
48.05 0.0573013
48.09 0.0702294
48.13 0.0760555
48.17 0.0715211
48.21 0.0775633
48.25 0.0700741
48.29 0.0801103
48.33 0.0725225
48.37 0.0782061
48.41 0.0656614
48.45 0.0666054
48.49 0.0765837
48.53 0.0773222
48.57 0.0734214
48.61 0.0727457
48.65 0.0794587
48.69 0.0722284
48.73 0.0765567
48.77 0.0741356
48.81 0.0660994
48.85 0.0527557
48.89 0.046883
48.93 0.0377266
48.97 0.0257296
49.01 0.0200121
49.05 0.0238247
49.09 0.0137329
49.13 0.00429393
49.17 0.0093173
49.21 0.0108199
49.25 -0.00406906
49.29 -0.00303075
49.33 -0.00139984
49.37 0.00442865
49.41 -0.00225649
49.45 -0.0033964
49.49 -0.00461868
49.53 0.00217051
49.57 -0.00629613
49.61 -0.00220976
49.65 0.000491135
49.69 -0.00312955
49.73 -0.00302616
49.77 -0.00412777
49.81 -0.00232894
49.85 -0.000321398
49.89 -0.00527419
49.93 0.00262346
49.97 0.00786691
50.01 -0.00709031
50.05 -0.00549374
50.09 0.000475209
50.13 0.00350695
50.17 0.00277816
50.21 0.00619384
50.25 -0.00112858
50.29 0.0059765
50.33 0.00434552
50.37 0.00728936
50.41 0.00547997
50.45 0.0101261
50.49 0.0148782
50.53 0.00254658
50.57 0.0140832
50.61 0.00820775
50.65 0.00109469
50.69 -0.000802491
50.73 0.00497061
50.77 0.00148211
50.81 -0.000187982
50.85 -0.00149767
50.89 0.000121187
50.93 -0.00134387
50.97 -0.00389388
51.01 -0.00273535
51.05 -0.00256788
51.09 -0.000582304
51.13 -0.00214053
51.17 -0.00492149
51.21 0.00316021
51.25 0.00326874
51.29 -0.0074152
51.33 -0.0022582
51.37 -8.22838e-05
51.41 -0.00179304
51.45 0.00046654
51.49 0.00108255
51.53 0.000127548
51.57 -0.00333769
51.61 0.00661895
51.65 -0.00162536
51.69 -0.00312904
51.73 -0.0049971
51.77 -0.00160355
51.81 -0.00804941
51.85 -0.00731033
51.89 0.000873959
51.93 -0.00560498
51.97 -0.004337
52.01 -0.00848376
52.05 0.00355547
52.09 -0.00531448
52.13 0.00819165
52.17 -0.00738181
52.21 0.0064593
52.25 0.00281625
52.29 0.00661182
52.33 0.00558005
52.37 0.00714765
52.41 0.0165198
52.45 0.0180765
52.49 0.0265237
52.53 0.0325249
52.57 0.0298702
52.61 0.0465058
52.65 0.0554707
52.69 0.0601864
52.73 0.06635
52.77 0.0581744
52.81 0.0601332
52.85 0.0546698
52.89 0.0396033
52.93 0.0378602
52.97 0.0430277
53.01 0.0362722
53.05 0.0333166
53.09 0.0106477
53.13 0.0253658
53.17 0.0231634
53.21 0.0143872
53.25 0.0177017
53.29 0.010241
53.33 0.0128215
53.37 0.0133293
53.41 0.0182775
53.45 0.014394
53.49 0.0153539
53.53 0.00344546
53.57 0.00957181
53.61 0.00367971
53.65 0.0100712
53.69 0.00334639
53.73 0.00988042
53.77 0.00599164
53.81 0.00772366
53.85 0.00578142
53.89 0.0158638
53.93 0.0096393
53.97 0.00753132
54.01 0.0126396
54.05 0.00867973
54.09 0.00749943
54.13 0.012968
54.17 0.012993
54.21 0.0156867
54.25 0.020251
54.29 0.0248317
54.33 0.03429
54.37 0.0500682
54.41 0.0535133
54.45 0.0629727
54.49 0.0710232
54.53 0.0774685
54.57 0.0805216
54.61 0.0797678
54.65 0.0587766
54.69 0.0606873
54.73 0.043373
54.77 0.0325883
54.81 0.02549
54.85 0.0163209
54.89 0.0098301
54.93 0.0115405
54.97 0.00720555
55.01 0.00674441
55.05 0.00392399
55.09 0.00406577
55.13 0.00219608
55.17 0.00632056
55.21 0.0045313
55.25 0.00838942
55.29 0.00659843
55.33 0.0144811
55.37 0.0151676
55.41 0.00754617
55.45 0.01435
55.49 0.0174802
55.53 0.0262922
55.57 0.0303086
55.61 0.0287086
55.65 0.0265181
55.69 0.0364385
55.73 0.0344995
55.77 0.0406917
55.81 0.0431649
55.85 0.0487918
55.89 0.0530715
55.93 0.0450472
55.97 0.0527801
56.01 0.0619122
56.05 0.0651838
56.09 0.0683472
56.13 0.0700324
56.17 0.066994
56.21 0.0710336
56.25 0.0640373
56.29 0.0451717
56.33 0.0447207
56.37 0.0347444
56.41 0.0286518
56.45 0.0219299
56.49 0.0130841
56.53 0.010181
56.57 0.0118834
56.61 0.00504878
56.65 0.00443497
56.69 -0.000679824
56.73 0.00361684
56.77 0.00614909
56.81 0.00683182
56.85 0.00140036
56.89 0.0105853
56.93 0.00311108
56.97 0.00610549
57.01 0.00191678
57.05 0.00397105
57.09 0.00146411
57.13 -0.00439505
57.17 0.010495
57.21 -0.00420169
57.25 -0.00280244
57.29 -0.00605556
57.33 0.00283982
57.37 0.00797386
57.41 5.51763e-05
57.45 -0.000528729
57.49 0.0052315
57.53 0.00251349
57.57 0.00305919
57.61 -0.00438258
57.65 0.00179483
57.69 -0.00639165
57.73 0.00130884
57.77 -0.00278405
57.81 0.00313349
57.85 -0.00120372
57.89 -0.00121593
57.93 0.000348995
57.97 -0.00320508
58.01 -0.00273006
58.05 0.00776177
58.09 -0.0033254
58.13 0.00808535
58.17 -0.00630743
58.21 -0.00131157
58.25 0.00427545
58.29 -0.00324188
58.33 -0.00587578
58.37 0.00697821
58.41 -0.00107477
58.45 -0.00478712
58.49 0.00497418
58.53 0.0029942
58.57 0.00663701
58.61 0.00243147
58.65 0.00229791
58.69 0.00414589
58.73 -0.00125523
58.77 -0.00590833
58.81 0.000736198
58.85 0.00864922
58.89 0.00448745
58.93 -0.000866432
58.97 0.00416491
59.01 0.0143282
59.05 -0.00296761
59.09 0.00396238
59.13 -0.000986212
59.17 -0.00254158
59.21 0.00738414
59.25 0.00453191
59.29 0.0114519
59.33 0.00405264
59.37 0.00936768
59.41 0.00200475
59.45 0.0183481
59.49 0.00895853
59.53 0.00257807
59.57 0.0166832
59.61 0.0165662
59.65 0.0210637
59.69 0.0126086
59.73 0.0146856
59.77 0.0100436
59.81 0.0160643
59.85 0.00937202
59.89 0.00951409
59.93 0.020337
59.97 0.000636324
60.01 0.00808782
60.05 0.00771698
60.09 0.00438426
60.13 0.000986077
60.17 0.0069445
60.21 0.00748236
60.25 0.003378
60.29 -0.00898971
60.33 -0.00431054
60.37 0.00249027
60.41 0.00975406
60.45 0.00411564
60.49 0.00632269
60.53 0.00193719
60.57 -0.00205106
60.61 0.0142354
60.65 0.00675646
60.69 0.0137156
60.73 0.02063
60.77 0.0102458
60.81 0.0106029
60.85 0.0133261
60.89 0.019401
60.93 0.025383
60.97 0.0266132
61.01 0.0235641
61.05 0.0283819
61.09 0.0301999
61.13 0.0250738
61.17 0.0286924
61.21 0.0237896
61.25 0.0276386
61.29 0.023236
61.33 0.0351531
61.37 0.0151208
61.41 0.0302473
61.45 0.0237337
61.49 0.0281699
61.53 0.0331947
61.57 0.0314018
61.61 0.0279547
61.65 0.0247869
61.69 0.0242158
61.73 0.0103423
61.77 0.02094
61.81 0.0187637
61.85 0.00784044
61.89 0.00734806
61.93 0.000758664
61.97 0.0194966
62.01 0.00135581
62.05 -0.000222425
62.09 -0.00435328
62.13 0.00339314
62.17 0.00087395
62.21 0.00912949
62.25 0.00836895
62.29 -0.000498762
62.33 -0.00883534
62.37 0.00740816
62.41 0.00735135
62.45 0.00869861
62.49 0.00368317
62.53 0.00830505
62.57 0.0143102
62.61 0.0145553
62.65 0.0155822
62.69 0.0197865
62.73 0.018507
62.77 0.022674
62.81 0.0235606
62.85 0.0193598
62.89 0.0183086
62.93 0.0129415
62.97 0.0101
63.01 0.0154233
63.05 0.0098012
63.09 0.00967148
63.13 0.00335066
63.17 0.00643195
63.21 0.000824975
63.25 0.0103025
63.29 -0.00407934
63.33 -0.00168097
63.37 0.00397557
63.41 0.00340536
63.45 -0.00553207
63.49 -0.00590128
63.53 0.0011712
63.57 -0.00463461
63.61 0.000621229
63.65 -0.000750571
63.69 0.00382067
63.73 -0.00434551
63.77 0.00463851
63.81 -0.00406191
63.85 0.0015424
63.89 0.00584375
63.93 0.000558792
63.97 -0.00103288
64.01 -0.00247653
64.05 0.00469179
64.09 0.00266704
64.13 0.00632209
64.17 -4.17941e-05
64.21 -0.00353017
64.25 0.00657291
64.29 0.00441383
64.33 0.00169143
64.37 -0.00188661
64.41 6.50476e-05
64.45 -0.00119439
64.49 0.00604392
64.53 -0.00387936
64.57 0.000792463
64.61 0.0039508
64.65 0.0141612
64.69 0.0111942
64.73 0.0166637
64.77 0.0108544
64.81 0.0246056
64.85 0.0285715
64.89 0.0232298
64.93 0.0288714
64.97 0.034052
65.01 0.0229115
65.05 0.0244894
65.09 0.0259925
65.13 0.0214773
65.17 0.0218382
65.21 0.0145422
65.25 0.0142943
65.29 0.00711929
65.33 0.0111776
65.37 0.00703222
65.41 -0.00330787
65.45 -0.00206689
65.49 0.00431576
65.53 -0.000663583
65.57 -0.00132227
65.61 0.00616896
65.65 0.000760062
65.69 0.00518194
65.73 -0.0038304
65.77 0.00603087
65.81 -0.00152106
65.85 0.00421428
65.89 -0.00118183
65.93 0.00548851
65.97 0.000308315
66.01 0.00981317
66.05 0.00287571
66.09 -4.46205e-06
66.13 0.00507159
66.17 0.00269407
66.21 0.000607044
66.25 0.0127272
66.29 0.00771614
66.33 0.00241237
66.37 0.015201
66.41 0.013069
66.45 0.0217894
66.49 0.014375
66.53 0.012768
66.57 0.0171476
66.61 0.0199595
66.65 0.0169716
66.69 0.0197921
66.73 0.0195521
66.77 0.0115296
66.81 0.0141118
66.85 0.0142258
66.89 0.0105268
66.93 0.00471647
66.97 0.00654768
67.01 -0.000448716
67.05 0.00972286
67.09 0.00341776
67.13 0.00487666
67.17 -0.00289091
67.21 0.00129462
67.25 0.00415433
67.29 -0.00493169
67.33 0.000768403
67.37 0.0033993
67.41 0.00507587
67.45 -0.00292464
67.49 -0.000362916
67.53 0.000475944
67.57 -0.00250456
67.61 0.00450359
67.65 -0.00258322
67.69 0.00111113
67.73 -0.00203915
67.77 -0.00102677
67.81 -0.00569084
67.85 0.00276789
67.89 0.000612009
67.93 0.00109808
67.97 0.00462413
68.01 -0.00447865
68.05 0.0043054
68.09 0.0132108
68.13 0.00751816
68.17 0.000407923
68.21 0.00412223
68.25 0.011852
68.29 0.0077377
68.33 0.000955465
68.37 0.0118741
68.41 0.0134697
68.45 0.00443955
68.49 0.00532648
68.53 0.0146659
68.57 0.00727894
68.61 0.0155268
68.65 0.00803621
68.69 0.011351
68.73 0.0187028
68.77 0.0192555
68.81 0.0226081
68.85 0.0149998
68.89 0.0188934
68.93 0.021997
68.97 0.0294538
69.01 0.0240121
69.05 0.0202177
69.09 0.0336842
69.13 0.0255839
69.17 0.0345061
69.21 0.031399
69.25 0.0260862
69.29 0.024518
69.33 0.026662
69.37 0.0350917
69.41 0.0345007
69.45 0.0244863
69.49 0.0236394
69.53 0.0265197
69.57 0.0261588
69.61 0.0183416
69.65 0.0224797
69.69 0.0250494
69.73 0.0168839
69.77 0.0153453
69.81 0.0165024
69.85 0.00441975
69.89 0.00250466
69.93 0.00425545
69.97 0.00263635
70.01 0.015762
70.05 0.00515082
70.09 0.00650617
70.13 0.00717811
70.17 0.00337117
70.21 0.00866907
70.25 -0.00407092
70.29 -0.00696562
70.33 0.00684731
70.37 -0.00413538
70.41 -0.00547717
70.45 0.00480979
70.49 0.00389254
70.53 -0.0011397
70.57 0.00135153
70.61 0.00739096
70.65 -0.00635982
70.69 0.00836676
70.73 0.00379401
70.77 0.000594637
70.81 0.00440115
70.85 0.00433136
70.89 -0.00318143
70.93 0.00451924
70.97 0.00207077
71.01 0.00408826
71.05 0.00424554
71.09 0.00336685
71.13 0.00604479
71.17 0.0014371
71.21 0.00746212
71.25 0.00225643
71.29 0.000240381
71.33 0.000469162
71.37 0.000539479
71.41 0.00714962
71.45 0.00897252
71.49 0.000271829
71.53 -0.00432147
71.57 0.00922137
71.61 0.000631083
71.65 0.00307089
71.69 0.00573265
71.73 0.00169199
71.77 0.00728461
71.81 0.00341483
71.85 0.0158265
71.89 0.00367914
71.93 0.00377816
71.97 -0.00180258
72.01 -0.00367785
72.05 0.00375545
72.09 0.000269095
72.13 0.000329982
72.17 -0.00743271
72.21 0.00114123
72.25 -0.00357548
72.29 -0.00705269
72.33 0.00706881
72.37 0.00682537
72.41 0.0038711
72.45 0.00640545
72.49 -0.000188134
72.53 0.00366558
72.57 -0.00364977
72.61 0.0109363
72.65 0.0113362
72.69 0.0124248
72.73 0.015222
72.77 0.0232037
72.81 0.0203236
72.85 0.0250675
72.89 0.0148696
72.93 0.0226928
72.97 0.0274887
73.01 0.0212416
73.05 0.0269291
73.09 0.0174689
73.13 0.0117163
73.17 0.0163841
73.21 0.0133134
73.25 0.00853083
73.29 -0.00193342
73.33 -0.000542246
73.37 0.000451931
73.4 -0.00873041