File: data/xrd/xy/2018-10-15T17_59_51.765248+00_00_LBL.xy
'Id: "" Comment: "Integrate frame Perovskite0_02_001.gfrmwith cursor Wedge Cursor #2" Operator: "UC Berkeley" Anode: "Co" Scantype: "TwoTheta" TimePerStep: "900"
15.205 -0.0166276
15.25 0.0019068
15.295 0.0129955
15.34 0.00776688
15.385 0.0119846
15.43 -0.0118819
15.475 0.0200752
15.52 0.00601823
15.565 0.0104163
15.61 0.00516789
15.655 0.00604224
15.7 -0.0022281
15.745 -0.00493162
15.79 0.00883117
15.835 -0.00364686
15.88 0.0217275
15.925 0.0167438
15.97 0.00900669
16.015 -0.00679961
16.06 0.0175793
16.105 0.00248476
16.15 0.0257208
16.195 0.0160247
16.24 0.0176596
16.285 0.0226702
16.33 0.0264661
16.375 0.0232988
16.42 0.00871865
16.465 0.0219619
16.51 0.00804385
16.555 0.0169693
16.6 0.0321209
16.645 0.0229754
16.69 0.000372263
16.735 0.0185959
16.78 0.0282201
16.825 0.0180356
16.87 0.0147925
16.915 -0.0121013
16.96 0.0167373
17.005 0.0157362
17.05 0.00774514
17.095 0.020696
17.14 0.0292993
17.185 0.0189062
17.23 -0.00943771
17.275 0.0158174
17.32 0.0225678
17.365 0.00348317
17.41 0.0199091
17.455 0.00645479
17.5 0.0127335
17.545 0.0250295
17.59 0.0188388
17.635 0.0034576
17.68 0.0140449
17.725 0.013427
17.77 -0.00278987
17.815 0.0250589
17.86 0.00521882
17.905 0.0113789
17.95 0.0227751
17.995 0.00884122
18.04 0.0181504
18.085 0.017954
18.13 0.0130928
18.175 -0.000328983
18.22 0.0119858
18.265 0.0083397
18.31 0.0186871
18.355 0.0277835
18.4 0.0430932
18.445 0.0484345
18.49 0.0269671
18.535 0.0229474
18.58 0.0263308
18.625 0.00508414
18.67 0.00871267
18.715 0.0253585
18.76 0.0156571
18.805 -0.00882931
18.85 0.0255565
18.895 0.0208326
18.94 0.00805836
18.985 0.020468
19.03 0.00294231
19.075 0.0232489
19.12 0.0103224
19.165 0.00626087
19.21 0.0058839
19.255 0.00223413
19.3 0.0134848
19.345 0.0111407
19.39 0.0126812
19.435 0.0351244
19.48 0.0188043
19.525 0.0105341
19.57 0.0236239
19.615 0.0134544
19.66 0.0108662
19.705 0.00839574
19.75 -0.0045777
19.795 0.0118658
19.84 0.028012
19.885 0.0115605
19.93 0.0137998
19.975 0.0172435
20.02 0.0118986
20.065 0.0163282
20.11 0.00361616
20.155 0.0101259
20.2 -0.0103625
20.245 0.0224632
20.29 -0.00315565
20.335 0.00753653
20.38 0.0283714
20.425 0.00332191
20.47 0.00889542
20.515 0.0180681
20.56 0.00401043
20.605 0.00182346
20.65 0.00254462
20.695 -0.00308814
20.74 0.00763422
20.785 0.0141068
20.83 -5.63753e-05
20.875 -0.00101116
20.92 -0.00076026
20.965 0.00311063
21.01 -0.00241331
21.055 0.012845
21.1 0.00525473
21.145 0.0070489
21.19 0.00770073
21.235 0.0208484
21.28 -0.00796108
21.325 0.0128548
21.37 -0.000177383
21.415 0.0270288
21.46 0.019115
21.505 -0.00362082
21.55 -0.000357625
21.595 0.000748125
21.64 0.0266227
21.685 0.00396762
21.73 0.00360687
21.775 0.010184
21.82 0.00275294
21.865 0.00658043
21.91 0.00480889
21.955 -0.0127692
22 0.00833505
22.045 0.0115961
22.09 0.0118353
22.135 -0.0063554
22.18 0.00872811
22.225 0.00790095
22.27 0.00798848
22.315 0.000739127
22.36 0.00375279
22.405 0.0219829
22.45 0.00433231
22.495 0.0118553
22.54 0.0231804
22.585 -0.0124095
22.63 0.0118295
22.675 0.00916296
22.72 0.0165263
22.765 0.026176
22.81 0.0280368
22.855 0.0439801
22.9 0.0283881
22.945 0.0167362
22.99 0.0453236
23.035 0.010403
23.08 0.012668
23.125 0.0318327
23.17 -0.00172623
23.215 0.0116722
23.26 0.00771074
23.305 0.00200487
23.35 0.00106802
23.395 0.0127973
23.44 0.0162563
23.485 0.00487641
23.53 0.00708615
23.575 -0.000190724
23.62 0.00245311
23.665 -0.0101377
23.71 0.0132323
23.755 0.0210404
23.8 0.0164424
23.845 0.0272804
23.89 0.0043025
23.935 0.0152644
23.98 0.0179024
24.025 0.0124621
24.07 0.0234198
24.115 0.00820551
24.16 0.00634426
24.205 0.000727098
24.25 0.0143306
24.295 0.0291211
24.34 0.000900813
24.385 -0.00282122
24.43 -0.0030989
24.475 0.00535887
24.52 -0.00571885
24.565 0.000997573
24.61 0.00981338
24.655 0.0235092
24.7 -0.000743973
24.745 0.000668034
24.79 0.000271021
24.835 0.00525057
24.88 0.00412234
24.925 0.0178446
24.97 0.0125223
25.015 0.00369041
25.06 0.00517089
25.105 -0.00255305
25.15 0.0185
25.195 0.00879716
25.24 0.0247416
25.285 0.00450757
25.33 0.0125872
25.375 0.000521771
25.42 0.00531704
25.465 0.0251737
25.51 0.00156267
25.555 0.0316307
25.6 0.0272264
25.645 0.0145854
25.69 0.0281497
25.735 0.0367348
25.78 0.0535863
25.825 0.063726
25.87 0.0642689
25.915 0.0710183
25.96 0.0599809
26.005 0.091194
26.05 0.0933753
26.095 0.125196
26.14 0.17175
26.185 0.21989
26.23 0.237809
26.275 0.278799
26.32 0.307782
26.365 0.267922
26.41 0.224689
26.455 0.222796
26.5 0.158536
26.545 0.117643
26.59 0.0810303
26.635 0.0574662
26.68 0.0461303
26.725 0.0315799
26.77 0.0324381
26.815 0.0248978
26.86 0.0161801
26.905 0.0190505
26.95 0.0309636
26.995 0.0204517
27.04 0.0182224
27.085 0.0309923
27.13 -0.00135818
27.175 0.00755535
27.22 0.0097506
27.265 0.00864823
27.31 0.0151806
27.355 0.00157078
27.4 0.0129469
27.445 0.0228964
27.49 0.0279672
27.535 0.024023
27.58 0.00697883
27.625 0.0262785
27.67 0.0093646
27.715 0.0119731
27.76 0.00702704
27.805 0.0179723
27.85 -0.000476699
27.895 0.0153686
27.94 0.019358
27.985 0.00527528
28.03 0.00670106
28.075 0.00559486
28.12 0.00532393
28.165 0.0101282
28.21 0.0068702
28.255 0.017184
28.3 0.0113728
28.345 0.0151653
28.39 0.0192761
28.435 0.0170864
28.48 0.0132108
28.525 0.0124802
28.57 0.00919999
28.615 0.018837
28.66 0.0300574
28.705 0.0181889
28.75 0.0201496
28.795 0.0432436
28.84 0.0465534
28.885 0.0498398
28.93 0.0752038
28.975 0.08707
29.02 0.0924185
29.065 0.118482
29.11 0.152071
29.155 0.153989
29.2 0.135412
29.245 0.107859
29.29 0.160321
29.335 0.233072
29.38 0.344036
29.425 0.557423
29.47 0.721911
29.515 0.807671
29.56 0.874842
29.605 0.802083
29.65 0.666957
29.695 0.414763
29.74 0.245064
29.785 0.13112
29.83 0.0687976
29.875 0.0468165
29.92 0.0367803
29.965 0.0195656
30.01 0.0239188
30.055 0.0299249
30.1 0.0275915
30.145 0.0261475
30.19 0.0167819
30.235 0.00547505
30.28 0.025372
30.325 0.0358624
30.37 0.0342311
30.415 0.0485001
30.46 0.0677651
30.505 0.0728427
30.55 0.0987855
30.595 0.10026
30.64 0.0914237
30.685 0.0465991
30.73 0.0263095
30.775 0.0139523
30.82 0.0155747
30.865 0.00548387
30.91 3.51438e-05
30.955 0.00229628
31 0.00615211
31.045 0.00232048
31.09 -0.000354962
31.135 0.000330635
31.18 -0.00171649
31.225 0.00867356
31.27 0.00149304
31.315 -0.00102582
31.36 -0.00467186
31.405 0.00848996
31.45 0.00128337
31.495 0.00611051
31.54 0.00747692
31.585 -0.00255113
31.63 -0.00132387
31.675 -0.00254541
31.72 -0.00222699
31.765 0.012177
31.81 0.00226608
31.855 -0.00346377
31.9 -0.00503111
31.945 0.00289803
31.99 0.0117637
32.035 -0.00579712
32.08 0.0100113
32.125 0.00454464
32.17 -0.00245154
32.215 0.000405925
32.26 0.00410455
32.305 0.0129394
32.35 -0.000718935
32.395 0.00304886
32.44 -0.00159006
32.485 0.000267614
32.53 0.00912535
32.575 -0.000261098
32.62 0.0116573
32.665 0.00696605
32.71 -0.00470613
32.755 -0.00495269
32.8 -0.00643507
32.845 -0.00206597
32.89 -0.00533551
32.935 0.00607818
32.98 -0.00501351
33.025 -0.00568613
33.07 0.00152946
33.115 -0.00376844
33.16 0.00425284
33.205 -0.00482252
33.25 0.007137
33.295 0.00951525
33.34 0.0113524
33.385 0.000127151
33.43 -0.00132442
33.475 -0.000926823
33.52 0.00770499
33.565 0.00280173
33.61 -0.00481358
33.655 -0.0014331
33.7 0.00108698
33.745 -0.0120013
33.79 0.00428798
33.835 0.00346725
33.88 0.000521336
33.925 -0.00357941
33.97 -0.00913181
34.015 -0.0098416
34.06 -0.00959852
34.105 -0.00562061
34.15 -0.00372119
34.195 -0.00412613
34.24 0.00486287
34.285 0.00488159
34.33 0.0131926
34.375 0.00996211
34.42 0.0156445
34.465 0.0171171
34.51 0.0484793
34.555 0.0705852
34.6 0.109016
34.645 0.171105
34.69 0.256193
34.735 0.350185
34.78 0.417578
34.825 0.381781
34.87 0.324962
34.915 0.215763
34.96 0.141328
35.005 0.100765
35.05 0.0997756
35.095 0.107712
35.14 0.12674
35.185 0.136756
35.23 0.146305
35.275 0.127844
35.32 0.101902
35.365 0.0859735
35.41 0.0506144
35.455 0.0316643
35.5 0.0298163
35.545 0.0185088
35.59 0.00986857
35.635 0.00303062
35.68 0.00600926
35.725 -0.00504134
35.77 -0.00095514
35.815 -0.00133841
35.86 0.00310845
35.905 -0.00206696
35.95 -0.00932735
35.995 -0.00321581
36.04 0.00452768
36.085 0.00592204
36.13 0.00207723
36.175 -0.00201469
36.22 -0.0083697
36.265 -0.00617333
36.31 -0.00314343
36.355 0.000530336
36.4 -0.000622642
36.445 -0.000668095
36.49 -0.00807781
36.535 -0.00466695
36.58 -0.00288442
36.625 0.00260596
36.67 -0.0025063
36.715 0.00737991
36.76 0.00439703
36.805 0.02033
36.85 0.0158023
36.895 0.0255787
36.94 0.0253076
36.985 0.0386485
37.03 0.0468466
37.075 0.0647414
37.12 0.0901684
37.165 0.127842
37.21 0.173597
37.255 0.228888
37.3 0.296769
37.345 0.361043
37.39 0.411098
37.435 0.439324
37.48 0.35706
37.525 0.269194
37.57 0.188862
37.615 0.1251
37.66 0.0921952
37.705 0.0609082
37.75 0.0441737
37.795 0.0310586
37.84 0.00696722
37.885 0.00647508
37.93 0.00431176
37.975 -0.00155021
38.02 0.00493142
38.065 0.00141887
38.11 0.00400141
38.155 -0.00133102
38.2 0.00133098
38.245 -0.0011742
38.29 0.00743635
38.335 0.00557961
38.38 -0.00133782
38.425 -0.00185807
38.47 -0.00950379
38.515 -0.000479445
38.56 -0.00565749
38.605 0.00467665
38.65 -0.00922949
38.695 -0.00189927
38.74 -0.00674837
38.785 -0.00566753
38.83 -0.00230487
38.875 -0.0033712
38.92 -0.00137847
38.965 0.00198082
39.01 0.00232444
39.055 0.00924307
39.1 -0.0021545
39.145 0.00654625
39.19 0.0129211
39.235 0.0157963
39.28 0.0277217
39.325 0.0257548
39.37 0.0272336
39.415 0.0331416
39.46 0.0408549
39.505 0.0341882
39.55 0.044877
39.595 0.0421121
39.64 0.0380763
39.685 0.0458748
39.73 0.0421332
39.775 0.0513763
39.82 0.0540963
39.865 0.054855
39.91 0.0669662
39.955 0.0643534
40 0.121386
40.045 0.224949
40.09 0.412804
40.135 0.620243
40.18 0.82248
40.225 0.779407
40.27 0.595217
40.315 0.352433
40.36 0.185453
40.405 0.0806741
40.45 0.0445863
40.495 0.021951
40.54 0.00677602
40.585 0.00584851
40.63 0.00462044
40.675 0.00202176
40.72 0.0045723
40.765 -0.00143054
40.81 0.0063824
40.855 0.0203261
40.9 -0.000776565
40.945 -0.00226949
40.99 -0.000848616
41.035 -0.00797483
41.08 -0.00765682
41.125 0.00227479
41.17 -0.00427134
41.215 -6.49988e-05
41.26 -0.00455071
41.305 -0.005453
41.35 0.00248992
41.395 0.0124628
41.44 0.0163228
41.485 0.00784038
41.53 0.0156283
41.575 0.00624851
41.62 0.00701613
41.665 0.00960033
41.71 0.000776656
41.755 -0.00048183
41.8 -0.00637238
41.845 -0.00562091
41.89 -0.00536998
41.935 -0.00679281
41.98 -0.00256053
42.025 -0.00309101
42.07 -0.00134108
42.115 -0.00295019
42.16 0.00803977
42.205 0.00239487
42.25 -0.000399925
42.295 0.00886525
42.34 0.00274445
42.385 0.00041878
42.43 0.00641279
42.475 0.003215
42.52 0.00719035
42.565 -0.00251104
42.61 -0.00468258
42.655 0.000630965
42.7 0.00579993
42.745 0.00110166
42.79 -0.00113843
42.835 0.00684651
42.88 0.0109478
42.925 0.00320295
42.97 0.0102563
43.015 0.00301576
43.06 0.00905002
43.105 0.00106255
43.15 -0.00215914
43.195 0.0103619
43.24 -0.00063051
43.285 0.00427669
43.33 0.0070577
43.375 -0.00453526
43.42 -0.00230645
43.465 0.0031902
43.51 0.000118711
43.555 0.000135444
43.6 -0.00508238
43.645 0.00946558
43.69 0.00492936
43.735 0.0072993
43.78 -0.00525271
43.825 -0.00181361
43.87 0.000386837
43.915 0.0150188
43.96 0.0186772
44.005 0.0287847
44.05 0.0269075
44.095 0.0502235
44.14 0.056784
44.185 0.0715274
44.23 0.0644646
44.275 0.0650696
44.32 0.0631751
44.365 0.049214
44.41 0.0309453
44.455 0.0226091
44.5 0.00971391
44.545 0.0112543
44.59 0.0076508
44.635 0.00933441
44.68 0.00135632
44.725 0.00289272
44.77 -0.00231951
44.815 0.00611226
44.86 -0.000275565
44.905 0.00107964
44.95 0.00308168
44.995 0.00300238
45.04 0.00893076
45.085 0.00833134
45.13 0.00310733
45.175 -0.00556196
45.22 0.000770655
45.265 0.0102187
45.31 0.00162549
45.355 0.00330859
45.4 -0.000904788
45.445 0.00341106
45.49 0.00569218
45.535 0.0102879
45.58 0.00501549
45.625 0.00187705
45.67 0.00359926
45.715 -0.00344872
45.76 0.00308778
45.805 0.00941305
45.85 -0.00556172
45.895 0.0118276
45.94 -0.00464003
45.985 0.00593107
46.03 0.0155723
46.075 0.00777546
46.12 0.015681
46.165 0.0137564
46.21 0.0142032
46.255 0.0266903
46.3 0.0226461
46.345 0.0384556
46.39 0.0346696
46.435 0.0581911
46.48 0.07224
46.525 0.104695
46.57 0.16092
46.615 0.302349
46.66 0.513257
46.705 0.672229
46.75 0.689462
46.795 0.613785
46.84 0.493866
46.885 0.317237
46.93 0.168775
46.975 0.0805049
47.02 0.0446062
47.065 0.0284186
47.11 0.0185089
47.155 0.012303
47.2 0.0208924
47.245 0.0162658
47.29 0.0157761
47.335 0.0181097
47.38 0.0174448
47.425 0.0152806
47.47 0.013742
47.515 0.0214638
47.56 0.0177844
47.605 0.0230146
47.65 0.0236651
47.695 0.0322164
47.74 0.0400626
47.785 0.0443762
47.83 0.054939
47.875 0.0730973
47.92 0.0814968
47.965 0.0873354
48.01 0.0929192
48.055 0.0900196
48.1 0.0698062
48.145 0.0768987
48.19 0.0700381
48.235 0.0670753
48.28 0.0816816
48.325 0.0886823
48.37 0.105478
48.415 0.112299
48.46 0.126152
48.505 0.130201
48.55 0.132947
48.595 0.138417
48.64 0.158305
48.685 0.191836
48.73 0.230603
48.775 0.337397
48.82 0.511082
48.865 0.731085
48.91 0.88833
48.955 1.00074
49 0.927
49.045 0.699541
49.09 0.447213
49.135 0.256548
49.18 0.128295
49.225 0.067734
49.27 0.0371084
49.315 0.0190981
49.36 0.0156846
49.405 0.00397427
49.45 0.00721097
49.495 0.00257126
49.54 0.00372517
49.585 -0.00466019
49.63 0.00304311
49.675 -0.000240561
49.72 -0.00189745
49.765 -0.00362971
49.81 -0.00410785
49.855 -0.00235898
49.9 0.00525458
49.945 -0.00218046
49.99 0.00224603
50.035 -0.00344618
50.08 0.00511624
50.125 0.00244857
50.17 -0.00135947
50.215 0.00447039
50.26 0.00445439
50.305 -0.00141223
50.35 -0.000930758
50.395 0.0111446
50.44 0.00932609
50.485 0.0090917
50.53 0.0154456
50.575 0.0255194
50.62 0.0230051
50.665 0.0171084
50.71 0.0317567
50.755 0.0190601
50.8 0.0147281
50.845 0.0130175
50.89 0.0100238
50.935 0.00796247
50.98 0.00679767
51.025 0.00672122
51.07 0.00561511
51.115 -3.78106e-05
51.16 0.00096512
51.205 0.00622249
51.25 0.00736047
51.295 -0.00132683
51.34 0.00621657
51.385 -0.00102102
51.43 -0.000165475
51.475 0.00254202
51.52 0.00708924
51.565 -0.00225697
51.61 -0.00104753
51.655 -0.000361725
51.7 0.00481995
51.745 -0.00313313
51.79 -0.00245866
51.835 -0.00650857
51.88 -0.00348388
51.925 -0.00162799
51.97 -0.00360576
52.015 -0.00725326
52.06 -0.00204051
52.105 0.00011619
52.15 -0.00401371
52.195 -0.00459944
52.24 -0.00184804
52.285 -0.00558283
52.33 -0.00456333
52.375 -0.00261222
52.42 -0.0072879
52.465 -0.00586399
52.51 0.00101202
52.555 -0.00562103
52.6 -0.00336338
52.645 -0.00403901
52.69 -0.00528673
52.735 0.00112888
52.78 0.00420315
52.825 -0.00811834
52.87 0.00195937
52.915 0.00615201
52.96 -0.0031437
53.005 0.0113353
53.05 0.00879171
53.095 0.0170055
53.14 0.00455643
53.185 0.0135829
53.23 0.0162059
53.275 0.0120067
53.32 0.00498993
53.365 0.00306482
53.41 0.00257069
53.455 0.00420173
53.5 0.0124046
53.545 0.0169112
53.59 0.0208057
53.635 0.0254003
53.68 0.0227376
53.725 0.025589
53.77 0.0249471
53.815 0.0118844
53.86 0.0077782
53.905 0.00892842
53.95 0.00334247
53.995 0.0029476
54.04 -0.00323317
54.085 -0.00165311
54.13 0.00357896
54.175 0.00198869
54.22 -0.00240075
54.265 0.00109882
54.31 -0.00154175
54.355 -0.00778131
54.4 -0.00114497
54.445 0.00173411
54.49 -0.00213533
54.535 0.0140782
54.58 0.00411456
54.625 0.00552366
54.67 0.00921097
54.715 0.0151517
54.76 0.0181529
54.805 0.0292051
54.85 0.0311245
54.895 0.0442782
54.94 0.053402
54.985 0.0613647
55.03 0.0607632
55.075 0.049458
55.12 0.0468124
55.165 0.0357309
55.21 0.0320976
55.255 0.026648
55.3 0.0177957
55.345 0.00986424
55.39 0.00746405
55.435 0.0115282
55.48 0.00760141
55.525 0.010913
55.57 0.0164961
55.615 0.0176323
55.66 0.0184227
55.705 0.0233267
55.75 0.0151248
55.795 0.0344046
55.84 0.0384016
55.885 0.0265542
55.93 0.0389747
55.975 0.0446112
56.02 0.0431973
56.065 0.0435834
56.11 0.0461222
56.155 0.0606141
56.2 0.0884923
56.245 0.116452
56.29 0.117128
56.335 0.0961042
56.38 0.071739
56.425 0.0509002
56.47 0.0387799
56.515 0.0192632
56.56 0.0190348
56.605 0.0128323
56.65 0.0176991
56.695 0.0187792
56.74 0.0217597
56.785 0.0334116
56.83 0.0380091
56.875 0.0375602
56.92 0.0457092
56.965 0.0522531
57.01 0.0411733
57.055 0.0229031
57.1 0.0128269
57.145 0.0121185
57.19 0.00567242
57.235 -0.000849788
57.28 0.00572165
57.325 -0.0022868
57.37 0.00149083
57.415 -0.00258034
57.46 0.00480201
57.505 0.000373746
57.55 -0.00463795
57.595 -0.00206648
57.64 0.00755883
57.685 -0.00187162
57.73 0.00424166
57.775 -0.000523085
57.82 0.00235409
57.865 -0.0007241
57.91 -0.00347087
57.955 -0.00340392
58 0.00714384
58.045 0.00194747
58.09 0.00346647
58.135 0.00221522
58.18 0.0051373
58.225 -0.00301507
58.27 -0.00154873
58.315 0.0145301
58.36 0.00903599
58.405 0.0118386
58.45 0.0175472
58.495 0.0150479
58.54 0.0155551
58.585 0.0244467
58.63 0.0146474
58.675 0.0144386
58.72 0.0211032
58.765 0.0114228
58.81 0.0109933
58.855 0.00415503
58.9 -0.00096621
58.945 -0.00404025
58.99 0.00483116
59.035 -0.00491209
59.08 0.000191492
59.125 -0.000210859
59.17 0.00288021
59.215 -0.00618081
59.26 -0.00644719
59.305 0.000441826
59.35 -0.000241776
59.395 0.00433561
59.44 0.00575239
59.485 0.0117476
59.53 -0.00211911
59.575 0.0136323
59.62 0.018666
59.665 0.0129515
59.71 0.0173737
59.755 0.0293096
59.8 0.033004
59.845 0.0291175
59.89 0.0374665
59.935 0.0268486
59.98 0.0288487
60.025 0.0175659
60.07 0.0212737
60.115 0.00348098
60.16 0.0063402
60.205 0.0136789
60.25 0.00523616
60.295 -0.00202233
60.34 0.00257446
60.385 -0.000479759
60.43 -0.00229969
60.475 -0.00736049
60.52 -0.00374164
60.565 -0.000702529
60.61 -5.6652e-05
60.655 -0.0046282
60.7 0.00114136
60.745 -0.000882404
60.79 -0.00264133
60.835 0.00907732
60.88 0.00651787
60.925 0.00288965
60.97 0.00829467
61.015 0.00809264
61.06 0.0133001
61.105 0.0251247
61.15 0.0199861
61.195 0.0284361
61.24 0.0288187
61.285 0.0300024
61.33 0.0265578
61.375 0.0188614
61.42 0.0171938
61.465 0.0120822
61.51 0.0187092
61.555 0.00965902
61.6 0.0140158
61.645 0.0101884
61.69 0.0118026
61.735 0.00347817
61.78 0.00682188
61.825 0.00611962
61.87 0.00220249
61.915 0.00456639
61.96 -0.00451019
62.005 -0.0029814
62.05 -0.00612148
62.095 0.00144549
62.14 -0.000960365
62.185 0.00268734
62.23 -0.00172825
62.275 -0.00493605
62.32 -0.00196024
62.365 -0.00531379
62.41 6.8343e-05
62.455 0.0039448
62.5 -0.00229331
62.545 -0.00567716
62.59 0.00371309
62.635 -0.000600645
62.68 0.00281641
62.725 0.00440414
62.77 0.00173668
62.815 -0.00245793
62.86 -0.00127463
62.905 0.00101196
62.95 0.000150986
62.995 -0.00764155
63.04 0.00837784
63.085 -0.00220087
63.13 0.00485796
63.175 0.00877909
63.22 0.00872178
63.265 0.011186
63.31 0.00775368
63.355 0.0051624
63.4 0.00984119
63.445 0.0203194
63.49 0.0197838
63.535 0.0258715
63.58 0.0199544
63.625 0.023464
63.67 0.0160083
63.715 0.0256795
63.76 0.0155947
63.805 0.00806557
63.85 0.00986538
63.895 0.0100893
63.94 0.0097894
63.985 0.00778628
64.03 0.0100796
64.075 0.00394144
64.12 0.00845336
64.165 0.00863099
64.21 0.00903027
64.255 0.00161768
64.3 0.00963711
64.345 0.0150521
64.39 0.0202751
64.435 0.0282966
64.48 0.013724
64.525 0.0130104
64.57 0.00565531
64.615 0.00163942
64.66 0.00943878
64.705 0.000817986
64.75 0.00123088
64.795 0.00267288
64.84 -0.00662709
64.885 -0.00169463
64.93 0.00566509
64.975 0.0100759
65.02 0.0181253
65.065 0.0243742
65.11 0.0227951
65.155 0.0278795
65.2 0.0464393
65.245 0.0571919
65.29 0.0838698
65.335 0.0947067
65.38 0.112301
65.425 0.112243
65.47 0.113419
65.515 0.115216
65.56 0.096666
65.605 0.0674916
65.65 0.0574685
65.695 0.0357025
65.74 0.0292678
65.785 0.0217314
65.83 0.0136095
65.875 0.00482903
65.92 0.000686124
65.965 0.00162807
66.01 0.014878
66.055 0.00720074
66.1 0.0114126
66.145 0.00619456
66.19 0.00938055
66.235 0.0174755
66.28 0.0152513
66.325 0.022712
66.37 0.0129115
66.415 0.0145404
66.46 0.0142405
66.505 0.00538507
66.55 0.00451754
66.595 0.0046885
66.64 0.00452846
66.685 0.0064396
66.73 -0.000164876
66.775 0.0032411
66.82 0.00184581
66.865 -0.00134342
66.91 -0.00649396
66.955 0.00610225
67 0.00160858
67.045 0.00311793
67.09 0.00490674
67.135 0.00378198
67.18 0.000447169
67.225 0.00247672
67.27 1.09373e-05
67.315 0.00435974
67.36 -7.38104e-05
67.405 0.00483632
67.45 0.00886791
67.495 -0.00349296
67.54 -0.00496341
67.585 0.00565553
67.63 0.00160265
67.675 0.00364847
67.72 -0.000259816
67.765 0.000988784
67.81 0.00184325
67.855 -0.00383133
67.9 0.00613912
67.945 0.00235398
67.99 -0.000603292
68.035 -4.33254e-05
68.08 -0.00432203
68.125 0.000904778
68.17 0.00168599
68.215 0.00208624
68.26 0.0141107
68.305 0.00166872
68.35 -0.00328361
68.395 0.00575506
68.44 -0.0039749
68.485 0.00770426
68.53 0.00333021
68.575 -0.000654589
68.62 0.00922771
68.665 0.00992198
68.71 0.0107798
68.755 0.0148461
68.8 0.0192644
68.845 0.0184787
68.89 0.0241951
68.935 0.0202351
68.98 0.027149
69.025 0.030126
69.07 0.0343779
69.115 0.0268625
69.16 0.0412102
69.205 0.0374873
69.25 0.0360944
69.295 0.0453672
69.34 0.0532823
69.385 0.0547877
69.43 0.058516
69.475 0.0626967
69.52 0.0614574
69.565 0.0576872
69.61 0.0635043
69.655 0.0716832
69.7 0.0699151
69.745 0.0652186
69.79 0.0603096
69.835 0.0534359
69.88 0.0433129
69.925 0.0379524
69.97 0.0265524
70.015 0.0195932
70.06 0.0186724
70.105 0.0213689
70.15 0.0157404
70.195 0.00975687
70.24 0.0160292
70.285 0.00585537
70.33 0.00240344
70.375 0.00305863
70.42 0.00529797
70.465 0.00413414
70.51 0.00355604
70.555 -0.000767345
70.6 -0.00464819
70.645 0.00439501
70.69 0.00973833
70.735 0.00920518
70.78 -0.00180457
70.825 -0.00315513
70.87 0.00491177
70.915 0.00384703
70.96 0.00585008
71.005 0.00135463
71.05 0.00739467
71.095 0.0136062
71.14 0.00990419
71.185 0.00556201
71.23 0.0116899
71.275 0.00871452
71.32 0.00977982
71.365 0.00285399
71.41 -0.00204772
71.455 0.0066701
71.5 0.00831212
71.545 0.0168876
71.59 0.00390564
71.635 0.00567964
71.68 0.00334231
71.725 0.0138995
71.77 0.0135165
71.815 0.00660271
71.86 0.0140359
71.905 0.00794659
71.95 0.0017467
71.995 0.0111717
72.04 0.0119384
72.085 0.00163236
72.13 0.00203554
72.175 0.00718392
72.22 0.00136761
72.265 0.00577539
72.31 0.00589324
72.355 0.00645806
72.4 -0.00431129
72.445 0.00658468
72.49 0.00929428
72.535 0.00526931
72.58 0.00629861
72.625 0.00175257
72.67 0.0105208
72.715 0.0113922
72.76 0.00917573
72.805 0.00908481
72.85 0.0185487
72.895 0.0203034
72.94 0.0111042
72.985 0.0289977
73.03 0.0257738
73.075 0.0286357
73.12 0.031452
73.165 0.0212699
73.21 0.0382007
73.255 0.0413752
73.3 0.036959
73.345 0.043594
73.39 0.0518839
73.435 0.0386133
73.48 0.044873
73.525 0.0332373
73.57 0.037879
73.615 0.0492489
73.66 0.0428099
73.705 0.0338442
73.75 0.0244311
73.795 0.0331463
73.84 0.0269051
73.885 0.0295784
73.93 0.0431782
73.975 0.0260207
74.02 0.0227058
74.065 0.0332851
74.11 0.0243386
74.155 0.0295719
74.2 0.0198765
74.245 0.0302511
74.29 0.0312352
74.335 0.0259077
74.38 0.0313637
74.425 0.0433857
74.47 0.034662
74.515 0.0349768
74.56 0.0302555
74.605 0.0356626
74.65 0.0459325
74.695 0.0464553
74.74 0.0543289
74.785 0.0754901
74.83 0.105648
74.875 0.137428
74.92 0.196879
74.965 0.214964
75.01 0.244175
75.055 0.266492
75.1 0.236949
75.145 0.227876
75.19 0.188075
75.235 0.192865
75.28 0.116065
75.325 0.0939144
75.37 0.0782511
75.415 0.064547
75.46 0.0520911
75.505 0.0524102
75.55 0.0448875
75.595 0.0244082
75.64 0.0298359
75.685 0.0409199
75.73 0.0239747
75.775 0.0243297
75.82 0.0185442
75.865 0.0265714
75.91 0.0247659
75.955 0.0176485
76 -0.00460132
76.04 -0.00647757