File: data/xrd/xy/2018-07-09T22_47_01.237679+00_00_LBL.xy
'Id: "" Comment: "Integrate frame perovskite1_01_001.gfrmwith cursor Wedge Cursor #2" Operator: "UC Berkeley" Anode: "Co" Scantype: "TwoTheta" TimePerStep: "300"
13.765 -0.030313
13.805 -0.01493
13.845 0.0336407
13.885 0.0107967
13.925 0.00174112
13.965 0.0296195
14.005 0.0619843
14.045 0.0309908
14.085 0.0817684
14.125 0.010548
14.165 0.080424
14.205 0.037389
14.245 0.0637237
14.285 0.0371642
14.325 0.0388019
14.365 0.0436319
14.405 0.0204322
14.445 0.0902702
14.485 0.0122514
14.525 0.0420585
14.565 0.0396176
14.605 0.0294982
14.645 0.0525514
14.685 0.0755111
14.725 0.023992
14.765 0.0776925
14.805 0.0179521
14.845 0.0220944
14.885 0.0766205
14.925 0.0659362
14.965 0.0231957
15.005 0.0362528
15.045 0.0568316
15.085 0.034823
15.125 0.0921464
15.165 0.0254849
15.205 0.0416922
15.245 0.0222372
15.285 0.101336
15.325 0.0415374
15.365 0.0867949
15.405 0.0596399
15.445 0.0765264
15.485 0.0391261
15.525 0.0234906
15.565 0.0517167
15.605 0.0854692
15.645 0.119489
15.685 0.0278395
15.725 0.089541
15.765 0.0424326
15.805 0.0540957
15.845 0.0621134
15.885 0.0535435
15.925 0.0347846
15.965 0.0348636
16.005 0.0964771
16.045 0.138909
16.085 0.226389
16.125 0.290509
16.165 0.350231
16.205 0.282567
16.245 0.209975
16.285 0.168679
16.325 0.247719
16.365 0.14024
16.405 0.175245
16.445 0.157624
16.485 0.0673322
16.525 0.0974733
16.565 0.0855014
16.605 0.0322177
16.645 0.0519768
16.685 0.0318011
16.725 0.0740606
16.765 0.0558584
16.805 0.0385754
16.845 0.121467
16.885 -0.00872261
16.925 0.12328
16.965 0.0638883
17.005 0.0320894
17.045 0.132012
17.085 0.0837499
17.125 0.0847034
17.165 0.0361638
17.205 0.0600391
17.245 0.043642
17.285 0.0627234
17.325 0.00681133
17.365 0.0363318
17.405 0.0510215
17.445 0.0152907
17.485 0.0399119
17.525 0.0782949
17.565 0.0533913
17.605 0.0654712
17.645 0.0513202
17.685 0.0966097
17.725 0.0395757
17.765 0.0696366
17.805 0.00178641
17.845 0.0611594
17.885 0.112436
17.925 0.113296
17.965 0.0641206
18.005 0.0886635
18.045 0.070781
18.085 0.0653054
18.125 0.116932
18.165 0.0662823
18.205 0.073942
18.245 0.0777772
18.285 0.0849988
18.325 0.021612
18.365 0.123792
18.405 0.0778689
18.445 0.0891925
18.485 0.0888888
18.525 0.0631367
18.565 0.0582733
18.605 0.0681837
18.645 0.0402532
18.685 0.0708038
18.725 0.064945
18.765 0.0484295
18.805 0.0529775
18.845 0.0313459
18.885 0.0514652
18.925 0.0341693
18.965 0.0388698
19.005 -0.00954647
19.045 0.0646745
19.085 0.0682375
19.125 0.0229791
19.165 0.0604019
19.205 0.0712326
19.245 0.11277
19.285 0.0683289
19.325 0.00741469
19.365 0.052938
19.405 0.0423723
19.445 0.0561299
19.485 0.0830011
19.525 0.0406962
19.565 0.101155
19.605 0.0830232
19.645 0.0418986
19.685 0.0210264
19.725 0.0387847
19.765 0.0745645
19.805 0.0421759
19.845 0.0825726
19.885 0.0398024
19.925 0.0422365
19.965 0.0547827
20.005 0.0479689
20.045 0.0682229
20.085 0.0872684
20.125 -0.00717136
20.165 0.0994588
20.205 0.0228136
20.245 0.0380218
20.285 0.0577373
20.325 0.0398595
20.365 0.0907838
20.405 0.054045
20.445 0.00933783
20.485 0.0885382
20.525 0.058708
20.565 0.0817889
20.605 0.0980245
20.645 0.0959483
20.685 0.0772611
20.725 0.108337
20.765 0.0154305
20.805 0.023962
20.845 0.0641817
20.885 0.0630871
20.925 0.0463251
20.965 0.0771872
21.005 0.0605313
21.045 0.100064
21.085 0.0865494
21.125 0.0713589
21.165 0.067037
21.205 0.0843353
21.245 0.095624
21.285 0.0734656
21.325 0.0882699
21.365 0.0549681
21.405 0.0843069
21.445 0.0491474
21.485 0.0818268
21.525 0.0279259
21.565 0.0799519
21.605 0.0246224
21.645 0.0766922
21.685 0.0159325
21.725 0.10011
21.765 0.0513208
21.805 0.040987
21.845 0.06712
21.885 0.0555839
21.925 0.0246564
21.965 0.0168539
22.005 0.09734
22.045 0.06155
22.085 0.078311
22.125 0.121304
22.165 0.0878039
22.205 0.0532122
22.245 0.0630991
22.285 0.0780333
22.325 0.00258546
22.365 0.0971345
22.405 0.0564762
22.445 0.0296249
22.485 0.0777924
22.525 0.0577576
22.565 0.062349
22.605 0.0806574
22.645 0.044226
22.685 0.088206
22.725 0.0436604
22.765 0.0820473
22.805 0.0791072
22.845 0.063141
22.885 0.0819422
22.925 0.0306108
22.965 0.0389966
23.005 0.0720019
23.045 0.100477
23.085 0.104176
23.125 0.120977
23.165 0.115859
23.205 0.130369
23.245 0.119726
23.285 0.113267
23.325 0.12008
23.365 0.0988386
23.405 0.120301
23.445 0.0326348
23.485 0.0401552
23.525 0.0275384
23.565 0.0399842
23.605 0.0730364
23.645 0.0346763
23.685 0.0850368
23.725 0.0883839
23.765 0.0606075
23.805 0.0752876
23.845 0.00766237
23.885 0.0399125
23.925 0.0810032
23.965 0.072373
24.005 0.0927048
24.045 0.0955091
24.085 0.0725994
24.125 0.127754
24.165 0.0818802
24.205 0.0849338
24.245 0.062257
24.285 0.0495779
24.325 0.0839353
24.365 0.0884767
24.405 0.0852238
24.445 0.0632269
24.485 0.0609282
24.525 0.065604
24.565 0.0431871
24.605 0.0692183
24.645 0.0540931
24.685 0.078385
24.725 0.0734832
24.765 0.0812969
24.805 0.0618157
24.845 0.0522272
24.885 0.0558687
24.925 0.0171525
24.965 0.041211
25.005 0.0833494
25.045 0.0466738
25.085 0.0654504
25.125 0.107542
25.165 0.0862895
25.205 0.0683323
25.245 0.0162299
25.285 0.0828726
25.325 0.0486869
25.365 0.10971
25.405 0.0333105
25.445 0.0499378
25.485 0.10223
25.525 0.101171
25.565 0.0887142
25.605 0.0742657
25.645 0.0861749
25.685 0.136501
25.725 0.0895163
25.765 0.170682
25.805 0.111675
25.845 0.142329
25.885 0.180449
25.925 0.191182
25.965 0.23435
26.005 0.299653
26.045 0.356535
26.085 0.392792
26.125 0.450141
26.165 0.589567
26.205 0.707003
26.245 0.80403
26.285 0.73061
26.325 0.792655
26.365 0.632887
26.405 0.523425
26.445 0.455424
26.485 0.233054
26.525 0.255938
26.565 0.186226
26.605 0.157204
26.645 0.0812205
26.685 0.0587856
26.725 0.104896
26.765 0.0941835
26.805 0.121871
26.845 0.100148
26.885 0.046978
26.925 0.0451257
26.965 0.0381236
27.005 0.0791929
27.045 0.104992
27.085 0.0218806
27.125 0.0789209
27.165 0.0704549
27.205 0.0852898
27.245 0.0846752
27.285 0.161261
27.325 0.193098
27.365 0.122554
27.405 0.136121
27.445 0.0865972
27.485 0.0820445
27.525 0.0210615
27.565 0.0423796
27.605 0.0533143
27.645 0.0535378
27.685 0.0702176
27.725 0.0447048
27.765 0.0200334
27.805 0.0433558
27.845 -0.0171772
27.885 0.0551387
27.925 0.113317
27.965 0.0712935
28.005 0.0567184
28.045 0.0637259
28.085 0.0655418
28.125 0.0646222
28.165 0.0793259
28.205 0.0390968
28.245 0.0522323
28.285 0.0482995
28.325 0.0209637
28.365 0.0951406
28.405 0.163183
28.445 0.206692
28.485 0.205127
28.525 0.197271
28.565 0.185453
28.605 0.0909869
28.645 0.0642705
28.685 0.042081
28.725 0.0705558
28.765 0.0317405
28.805 0.0557165
28.845 0.0216626
28.885 0.0154988
28.925 0.0264235
28.965 0.04463
29.005 0.0488062
29.045 0.0222987
29.085 0.0295522
29.125 0.00154872
29.165 0.0312268
29.205 0.0561296
29.245 0.0259113
29.285 0.00227413
29.325 0.0437295
29.365 0.00273261
29.405 0.00653899
29.445 0.0167482
29.485 0.0543224
29.525 0.0317917
29.565 -0.00248194
29.605 0.0494142
29.645 0.0432175
29.685 0.00726509
29.725 0.000799583
29.765 0.0432877
29.805 0.039542
29.845 0.0356321
29.885 0.0154696
29.925 0.0441248
29.965 0.0731886
30.005 0.00676943
30.045 0.0109656
30.085 0.0290739
30.125 0.0353175
30.165 0.0370368
30.205 0.0226821
30.245 0.00778694
30.285 0.0498874
30.325 0.0241942
30.365 0.0221418
30.405 0.0188715
30.445 0.0341914
30.485 0.0260568
30.525 0.0350137
30.565 -0.00686934
30.605 -0.00852553
30.645 -0.0115489
30.685 0.0232743
30.725 0.0139932
30.765 0.0121602
30.805 0.0620282
30.845 0.0118845
30.885 0.00643406
30.925 0.0438021
30.965 0.0273945
31.005 -0.0233934
31.045 0.0374935
31.085 0.0267586
31.125 0.0245697
31.165 0.0463143
31.205 0.00860804
31.245 0.0576946
31.285 0.0573987
31.325 0.0293404
31.365 0.0384138
31.405 0.0131605
31.445 0.00549004
31.485 0.0169403
31.525 0.020332
31.565 0.0185797
31.605 0.0266147
31.645 0.0594892
31.685 0.0299165
31.725 0.0435479
31.765 0.0154436
31.805 0.0127736
31.845 0.021458
31.885 0.0184427
31.925 0.0328953
31.965 0.0401031
32.005 0.0312607
32.045 0.0393047
32.085 0.0407275
32.125 0.0949353
32.165 0.0514071
32.205 0.0186083
32.245 0.0216583
32.285 0.0917318
32.325 0.0705356
32.365 0.0884327
32.405 0.0465205
32.445 0.0996799
32.485 0.146092
32.525 0.125359
32.565 0.176929
32.605 0.362707
32.645 0.83215
32.685 2.09009
32.725 5.35219
32.765 9.61235
32.805 10.4145
32.845 7.03551
32.885 3.00682
32.925 1.20911
32.965 0.552049
33.005 0.400602
33.045 0.461384
33.085 0.609084
33.125 0.842948
33.165 1.13123
33.205 1.24187
33.245 1.15556
33.285 0.726579
33.325 0.50828
33.365 0.206913
33.405 0.101795
33.445 0.0944947
33.485 0.0494051
33.525 0.0504141
33.565 0.0860281
33.605 0.0376355
33.645 0.0618277
33.685 0.0397235
33.725 0.0246114
33.765 0.0503072
33.805 0.0487793
33.845 0.00557123
33.885 0.0272606
33.925 0.0202426
33.965 0.0362674
34.005 0.0104522
34.045 0.0217356
34.085 0.00957431
34.125 -0.00193176
34.165 0.0358576
34.205 -0.0132985
34.245 0.0208501
34.285 -0.0231351
34.325 0.0335244
34.365 0.00978692
34.405 0.0351672
34.445 0.0275886
34.485 0.00672276
34.525 0.0040297
34.565 0.000276186
34.605 0.0072877
34.645 -0.0194253
34.685 -0.0148258
34.725 0.00964536
34.765 0.0081517
34.805 0.00304728
34.845 0.0019677
34.885 -0.00635452
34.925 -0.00907673
34.965 -0.00546665
35.005 0.00774472
35.045 -0.00449242
35.085 0.0185801
35.125 0.0141783
35.165 -0.00472247
35.205 0.032032
35.245 0.00664493
35.285 0.00100965
35.325 -0.00753208
35.365 -0.01563
35.405 -0.0190932
35.445 0.00400294
35.485 0.0363601
35.525 -0.0228298
35.565 -0.00727774
35.605 0.0244667
35.645 0.0113437
35.685 0.0101617
35.725 -0.00664573
35.765 0.00157534
35.805 0.0143891
35.845 0.00308093
35.885 0.0262077
35.925 0.0791441
35.965 0.136886
36.005 0.24067
36.045 0.314783
36.085 0.286528
36.125 0.165315
36.165 0.0728961
36.205 0.0235823
36.245 0.0149697
36.285 0.00667725
36.325 0.00504147
36.365 0.0310912
36.405 0.0180989
36.445 0.025554
36.485 -0.000237245
36.525 0.0370046
36.565 0.0319562
36.605 0.0434584
36.645 0.0170917
36.685 0.0714744
36.725 0.117531
36.765 0.147808
36.805 0.192882
36.845 0.264468
36.885 0.269324
36.925 0.329253
36.965 0.375502
37.005 0.352548
37.045 0.381202
37.085 0.444148
37.125 0.527323
37.165 0.568598
37.205 0.551371
37.245 0.481253
37.285 0.35906
37.325 0.250982
37.365 0.143938
37.405 0.0782644
37.445 0.0362248
37.485 0.0305482
37.525 0.016835
37.565 0.0341751
37.605 0.0338196
37.645 0.0182934
37.685 0.00773637
37.725 0.0192761
37.765 -0.00987834
37.805 0.0332855
37.845 0.00117311
37.885 -0.0156001
37.925 -0.00799903
37.965 0.00134271
38.005 -0.0186362
38.045 -0.00506695
38.085 -0.0156053
38.125 0.0125219
38.165 0.0119149
38.205 -0.0155328
38.245 0.00568963
38.285 -0.00269049
38.325 -0.000487003
38.365 0.0290134
38.405 0.00256184
38.445 0.00794351
38.485 0.00530133
38.525 -0.00226228
38.565 0.0257358
38.605 0.0194505
38.645 0.0247006
38.685 0.0245157
38.725 0.0191735
38.765 0.00742939
38.805 0.0078506
38.845 0.0492165
38.885 0.00667869
38.925 0.0135908
38.965 0.0257044
39.005 0.0167243
39.045 0.0415377
39.085 0.0209915
39.125 0.0408242
39.165 0.0623367
39.205 0.0635247
39.245 0.059047
39.285 0.0691394
39.325 0.0810494
39.365 0.0930141
39.405 0.0901352
39.445 0.0955946
39.485 0.130847
39.525 0.102093
39.565 0.130637
39.605 0.0999846
39.645 0.138524
39.685 0.143871
39.725 0.124873
39.765 0.0975989
39.805 0.120239
39.845 0.115792
39.885 0.120428
39.925 0.0937771
39.965 0.071283
40.005 0.075338
40.045 0.0646607
40.085 0.0746259
40.125 0.0492489
40.165 0.0555348
40.205 0.0442814
40.245 0.0469276
40.285 0.0215956
40.325 0.0247217
40.365 0.0202273
40.405 0.0625521
40.445 0.0461266
40.485 0.0278653
40.525 0.0750357
40.565 0.0538229
40.605 0.0736172
40.645 0.0481666
40.685 0.0911342
40.725 0.122822
40.765 0.120199
40.805 0.121595
40.845 0.173001
40.885 0.135875
40.925 0.105483
40.965 0.0585805
41.005 0.0452977
41.045 0.0270692
41.085 0.0378177
41.125 0.0155628
41.165 0.0160499
41.205 0.0335737
41.245 0.00875969
41.285 0.0133544
41.325 0.0241748
41.365 -0.000546735
41.405 0.0411039
41.445 0.0387432
41.485 0.00871337
41.525 0.00277797
41.565 -0.0138385
41.605 0.0180258
41.645 0.0180022
41.685 0.0167022
41.725 0.0159757
41.765 0.0247888
41.805 0.0327589
41.845 0.00207683
41.885 0.0408117
41.925 0.0156181
41.965 0.0336532
42.005 0.0184623
42.045 0.029876
42.085 0.0123856
42.125 0.0042785
42.165 0.017793
42.205 0.0267745
42.245 0.0129
42.285 0.0263717
42.325 0.0154328
42.365 0.0209338
42.405 0.0231846
42.445 0.0115556
42.485 0.0295057
42.525 -0.00860514
42.565 0.0168873
42.605 0.0431849
42.645 0.0328298
42.685 0.0312305
42.725 0.0208671
42.765 0.00480154
42.805 0.0240382
42.845 0.013291
42.885 0.000242264
42.925 0.0220133
42.965 0.0212848
43.005 -0.00664975
43.045 0.0309522
43.085 0.0139563
43.125 0.0105317
43.165 0.00828053
43.205 0.0063044
43.245 0.0299705
43.285 0.0440732
43.325 0.00510433
43.365 0.0331074
43.405 0.0491391
43.445 0.0230468
43.485 0.0641077
43.525 0.0535583
43.565 0.087589
43.605 0.0702951
43.645 0.0366004
43.685 0.0249376
43.725 0.0287162
43.765 0.0364236
43.805 0.035326
43.845 0.0236199
43.885 0.0253918
43.925 0.0264901
43.965 0.0137876
44.005 0.0282102
44.045 0.0382856
44.085 0.0218863
44.125 0.0243339
44.165 0.00468075
44.205 0.0215519
44.245 0.0236479
44.285 0.011075
44.325 0.0424188
44.365 0.060813
44.405 0.0419303
44.445 0.0344986
44.485 0.0556729
44.525 0.0484081
44.565 0.0179736
44.605 0.0595704
44.645 0.0456843
44.685 0.0198839
44.725 0.0389703
44.765 0.0089092
44.805 0.0272796
44.845 0.0362836
44.885 0.0355988
44.925 0.0537649
44.965 0.0366642
45.005 0.0265472
45.045 -0.00277479
45.085 0.0477742
45.125 0.0135119
45.165 0.0234139
45.205 0.0234617
45.245 0.0253629
45.285 0.0156706
45.325 0.018617
45.365 0.0175758
45.405 0.0428249
45.445 0.0195206
45.485 0.039659
45.525 0.00550129
45.565 0.0249787
45.605 0.0163062
45.645 0.021037
45.685 0.03068
45.725 0.00383743
45.765 0.0642589
45.805 0.0157603
45.845 0.0205129
45.885 0.00420689
45.925 0.0311999
45.965 0.0339371
46.005 0.0222562
46.045 0.0412223
46.085 0.0380853
46.125 0.0412333
46.165 0.0141856
46.205 0.0367179
46.245 0.0262506
46.285 0.0088163
46.325 0.0540223
46.365 0.0194374
46.405 0.0257719
46.445 0.0253404
46.485 0.00208451
46.525 0.047415
46.565 0.00540348
46.605 0.0333346
46.645 0.0472762
46.685 0.0376808
46.725 0.0437656
46.765 0.0142232
46.805 0.0193395
46.845 0.013032
46.885 0.00667983
46.925 0.0408852
46.965 0.0412794
47.005 0.0513843
47.045 0.0567894
47.085 0.0824334
47.125 0.0790421
47.165 0.105401
47.205 0.2066
47.245 0.257833
47.285 0.353837
47.325 0.442202
47.365 0.56305
47.405 0.620536
47.445 0.708254
47.485 0.719575
47.525 0.78318
47.565 0.924627
47.605 1.24782
47.645 1.46669
47.685 2.04918
47.725 2.27212
47.765 1.74238
47.805 1.02217
47.845 0.465477
47.885 0.195549
47.925 0.0998946
47.965 0.0743813
48.005 0.0479149
48.045 0.0404384
48.085 0.0202397
48.125 0.0331405
48.165 0.0180117
48.205 0.0342977
48.245 0.00147393
48.285 0.0165069
48.325 0.00729487
48.365 0.0223503
48.405 0.0127588
48.445 0.0171352
48.485 -0.0127198
48.525 0.0173299
48.565 0.0222122
48.605 0.0247388
48.645 0.0277541
48.685 0.00736644
48.725 -0.00323658
48.765 0.0110332
48.805 -0.00473047
48.845 0.000132841
48.885 0.00954403
48.925 0.00907123
48.965 0.0198713
49.005 0.00489515
49.045 0.0139307
49.085 0.000135629
49.125 0.022851
49.165 0.00619787
49.205 0.0196058
49.245 0.00745671
49.285 0.018496
49.325 0.0250497
49.365 0.011771
49.405 0.0333661
49.445 0.0326541
49.485 0.0594777
49.525 0.0666928
49.565 0.0933128
49.605 0.163687
49.645 0.192072
49.685 0.200746
49.725 0.166914
49.765 0.125248
49.805 0.136753
49.845 0.206681
49.885 0.257334
49.925 0.360899
49.965 0.36428
50.005 0.306444
50.045 0.226993
50.085 0.192348
50.125 0.151421
50.165 0.170396
50.205 0.215921
50.245 0.271193
50.285 0.331149
50.325 0.425183
50.365 0.563102
50.405 0.665171
50.445 0.791881
50.485 0.920227
50.525 0.970134
50.565 0.904574
50.605 0.750591
50.645 0.603782
50.685 0.416863
50.725 0.29313
50.765 0.188433
50.805 0.124089
50.845 0.0852926
50.885 0.0527203
50.925 0.04242
50.965 0.0305828
51.005 0.0175234
51.045 0.0171037
51.085 0.0234794
51.125 0.0179785
51.165 -0.00618112
51.205 0.0084521
51.245 0.00353341
51.285 0.00616958
51.325 0.0047254
51.365 0.00924035
51.405 0.0175179
51.445 0.0073139
51.485 0.0188065
51.525 0.00343349
51.565 0.0226236
51.605 0.00497986
51.645 0.0150978
51.685 -0.00852142
51.725 0.0149702
51.765 0.0198201
51.805 -0.0123048
51.845 -0.0061993
51.885 0.000758479
51.925 0.0140838
51.965 0.00240968
52.005 0.0044181
52.045 0.00825801
52.085 0.00252883
52.125 0.0153151
52.165 0.0132196
52.205 0.0138186
52.245 0.0171002
52.285 -0.00500734
52.325 0.0148084
52.365 0.0154491
52.405 0.013616
52.445 0.0142094
52.485 0.00585562
52.525 0.00122312
52.565 0.00440281
52.605 0.01372
52.645 0.00787179
52.685 0.0101045
52.725 0.0175112
52.765 0.0269857
52.805 0.00146454
52.845 -0.00226769
52.885 0.010354
52.925 0.0227861
52.965 0.0159405
53.005 0.016262
53.045 0.0150176
53.085 0.00565264
53.125 0.010863
53.165 0.00974428
53.205 0.021024
53.245 0.0130343
53.285 0.0170839
53.325 0.0258831
53.365 -0.00212306
53.405 0.0205804
53.445 0.0299843
53.485 0.0246547
53.525 0.0319793
53.565 0.0310478
53.605 0.0249104
53.645 0.0274227
53.685 0.031286
53.725 0.0342509
53.765 0.0673763
53.805 0.0866631
53.845 0.0638995
53.885 0.0352677
53.925 0.0315301
53.965 0.0157904
54.005 -0.00257785
54.045 0.019059
54.085 0.0233293
54.125 0.0273009
54.165 0.0103985
54.205 0.0389116
54.245 0.0199136
54.285 0.01547
54.325 0.0193977
54.365 -0.00190319
54.405 0.00541329
54.445 0.0125926
54.485 -0.00500134
54.525 0.00889493
54.565 0.010972
54.605 0.00565829
54.645 0.00683797
54.685 -0.00219367
54.725 0.0122689
54.765 -0.0057178
54.805 0.0236738
54.845 0.00178307
54.885 0.025836
54.925 0.00766382
54.965 0.0181974
55.005 0.018497
55.045 0.0208549
55.085 0.034781
55.125 0.00245564
55.165 0.0291998
55.205 0.0416241
55.245 0.0291338
55.285 0.0470362
55.325 0.0190379
55.365 0.0621193
55.405 0.0510515
55.445 0.051044
55.485 0.0646618
55.525 0.0601601
55.565 0.0729809
55.605 0.0633955
55.645 0.0804361
55.685 0.0960251
55.725 0.0931506
55.765 0.0789415
55.805 0.08542
55.845 0.0740684
55.885 0.0593189
55.925 0.0544569
55.965 0.0552923
56.005 0.0617376
56.045 0.0392105
56.085 0.0377363
56.125 0.0486106
56.165 0.0357201
56.205 0.0195288
56.245 0.0364665
56.285 0.0337828
56.325 0.0207409
56.365 0.00253796
56.405 0.0202012
56.445 0.0216423
56.485 0.0223481
56.525 0.00997549
56.565 0.031674
56.605 0.0289188
56.645 0.0155354
56.685 -0.00660875
56.725 -0.00322916
56.765 -0.0166349
56.805 0.00605286
56.845 0.00492566
56.885 0.00886434
56.925 0.00385488
56.965 0.0140186
57.005 0.00783216
57.045 0.0241194
57.085 0.0211848
57.125 0.0200123
57.165 0.0115937
57.205 0.0151286
57.245 0.016705
57.285 0.00578649
57.325 0.0146281
57.365 0.0155274
57.405 0.0311583
57.445 0.00121859
57.485 0.0178422
57.525 0.00671061
57.565 -0.0123249
57.605 0.00451934
57.645 0.0249781
57.685 0.0137999
57.725 -0.00718553
57.765 -0.00837365
57.805 0.00736619
57.845 0.00305442
57.885 -0.0129026
57.925 0.0121816
57.965 -0.0111522
58.005 0.0129037
58.045 0.0108811
58.085 0.0181771
58.125 0.0164681
58.165 -0.00222781
58.205 -0.00542421
58.245 0.00649001
58.285 -0.00975663
58.325 0.00687179
58.365 0.0526598
58.405 -0.00569164
58.445 0.0146499
58.485 0.0135736
58.525 0.0188282
58.565 0.0159525
58.605 0.0187508
58.645 0.0326858
58.685 0.0295597
58.725 0.0518051
58.765 0.0795722
58.805 0.104651
58.845 0.0903422
58.885 0.088282
58.925 0.0939338
58.965 0.0836565
59.005 0.0875183
59.045 0.141767
59.085 0.174959
59.125 0.236012
59.165 0.238892
59.205 0.22256
59.245 0.202759
59.285 0.146927
59.325 0.124069
59.365 0.135577
59.405 0.0667879
59.445 0.0723884
59.485 0.0302427
59.525 0.0221015
59.565 0.0125909
59.605 0.0319033
59.645 0.0369466
59.685 0.0333006
59.725 0.0347662
59.765 -0.010092
59.805 0.0315026
59.845 0.0320834
59.885 0.037997
59.925 0.00118272
59.965 0.0180451
60.005 0.000319996
60.045 0.00630106
60.085 0.0254512
60.125 0.0232014
60.165 0.00497106
60.205 0.0109317
60.245 0.0412834
60.285 0.0336359
60.325 0.0118875
60.365 0.0270288
60.405 0.0219596
60.445 0.0178418
60.485 0.0140297
60.525 0.0165994
60.565 0.0396805
60.605 0.00576738
60.645 0.0427884
60.685 0.0102073
60.725 0.0141374
60.765 0.0249284
60.805 0.00898675
60.845 0.0142727
60.885 0.0207954
60.925 0.0172802
60.965 0.025176
61.005 0.0647984
61.045 0.0514147
61.085 0.0843407
61.125 0.0888998
61.165 0.129401
61.205 0.132813
61.245 0.0910463
61.285 0.0732047
61.325 0.0946246
61.365 0.0519289
61.405 0.103554
61.445 0.102936
61.485 0.0874375
61.525 0.113666
61.565 0.131511
61.605 0.114191
61.645 0.115543
61.685 0.103234
61.725 0.0932539
61.765 0.152382
61.805 0.207535
61.845 0.323294
61.885 0.369015
61.925 0.318572
61.965 0.228139
62.005 0.183536
62.045 0.0889707
62.085 0.0557168
62.125 0.0624713
62.165 0.0450022
62.205 0.0801036
62.245 0.0416458
62.285 0.0243673
62.325 0.0246673
62.365 0.0140126
62.405 0.0403326
62.445 0.0537781
62.485 0.0229645
62.525 0.0377661
62.565 0.022349
62.605 0.0218613
62.645 0.0296345
62.685 0.00885103
62.725 0.0323451
62.765 0.0222171
62.805 0.0242405
62.845 0.0487154
62.885 0.023124
62.925 0.00825341
62.965 0.0182118
63.005 0.0157023
63.045 0.0200036
63.085 0.0168038
63.125 0.0222706
63.165 0.00392319
63.205 0.00750829
63.245 0.0102865
63.285 0.00234338
63.325 0.00838847
63.365 0.0133526
63.405 0.00626177
63.445 0.00748386
63.485 0.00241815
63.525 0.0088159
63.565 0.0170914
63.605 0.0149894
63.645 -0.00744373
63.685 0.00923937
63.725 0.0119012
63.765 0.0160814
63.805 0.0234143
63.845 0.0120501
63.885 0.0484109
63.925 0.00984628
63.965 0.0196425
64.005 0.0357895
64.045 0.0201342
64.085 0.0203986
64.125 0.0369911
64.165 0.0451775
64.205 0.0592471
64.245 0.0536544
64.285 0.0443516
64.325 0.0510046
64.365 0.0436612
64.405 0.0596535
64.445 0.0449519
64.485 0.0412573
64.525 0.0242309
64.565 0.0456464
64.605 0.0312552
64.645 0.0517201
64.685 0.05176
64.725 0.0450357
64.765 0.0414932
64.805 0.0417898
64.845 0.0308792
64.885 0.0277886
64.925 0.0182734
64.965 0.0224358
65.005 0.00769086
65.045 0.0205089
65.085 0.0278628
65.125 0.0164359
65.165 -0.00255468
65.205 0.0173835
65.245 0.0140853
65.285 0.0183785
65.325 0.00014726
65.365 0.00497511
65.405 0.019717
65.445 0.0157264
65.485 0.0201483
65.525 0.0141246
65.565 0.0216141
65.605 0.00405259
65.645 0.0162377
65.685 0.00153373
65.725 0.0303481
65.765 0.0131451
65.805 0.00707009
65.845 0.0117226
65.885 0.016826
65.925 0.0202531
65.965 0.0224307
66.005 0.032309
66.045 0.0268536
66.085 0.0184538
66.125 0.0303379
66.165 0.0505351
66.205 0.0255605
66.245 0.0509051
66.285 0.0214125
66.325 0.0496955
66.365 0.0292178
66.405 0.0290321
66.445 0.0277873
66.485 0.0287935
66.525 0.0113699
66.565 0.00412478
66.605 0.0247069
66.645 0.00977158
66.685 0.0160813
66.725 0.00879868
66.765 0.00828401
66.805 0.00563587
66.845 0.00270884
66.885 0.00554285
66.925 0.0148897
66.965 0.0166871
67.005 0.0277643
67.045 0.0222008
67.085 0.00852378
67.125 0.0213876
67.165 -0.00454357
67.205 0.00883582
67.245 0.00724459
67.285 0.0114809
67.325 -0.00193769
67.365 0.0132397
67.405 0.000240806
67.445 0.0122883
67.485 0.0200568
67.525 0.00719779
67.565 0.0120851
67.605 0.00096999
67.645 0.00769335
67.685 0.0183515
67.725 -0.00143958
67.765 0.0141086
67.805 0.00939264
67.845 -0.0116351
67.885 0.0110725
67.925 0.0116895
67.965 -0.00234415
68.005 0.00526359
68.045 -0.0142816
68.085 0.0210997
68.125 7.59983e-05
68.165 0.000839361
68.205 0.0159557
68.245 0.0110763
68.285 0.00948675
68.325 0.0163923
68.365 0.0133806
68.405 -0.00332229
68.445 0.0180911
68.485 0.0266883
68.525 -0.00576304
68.565 0.0185953
68.605 0.00670801
68.645 -0.00412754
68.685 0.00638964
68.725 0.000843724
68.765 0.0200579
68.805 0.024821
68.845 0.0387027
68.885 0.0269634
68.925 0.00944314
68.965 0.0162031
69.005 0.0351835
69.045 0.016358
69.085 0.0281084
69.125 0.0077173
69.165 0.0288476
69.205 0.0297562
69.245 0.0179117
69.285 0.029274
69.325 0.0176657
69.365 0.0248384
69.405 0.0276795
69.445 0.0195717
69.485 0.0347605
69.525 0.0402366
69.565 0.0119051
69.605 0.0386198
69.645 0.0393767
69.685 0.0182944
69.725 0.0287034
69.765 0.0217594
69.805 0.0122568
69.845 0.0255453
69.885 0.0258962
69.925 0.0193949
69.965 0.00980731
70.005 0.0180345
70.045 0.00986966
70.085 0.00954016
70.125 0.000494972
70.165 0.0129821
70.205 0.0111668
70.245 0.00384849
70.285 -0.0088106
70.325 0.00837806
70.365 0.0119028
70.405 -0.00326136
70.445 0.00252128
70.485 0.00297457
70.525 0.0201562
70.565 0.00585305
70.605 0.0201148
70.645 0.00874543
70.685 0.0212035
70.725 -0.00501864
70.765 0.0126942
70.805 0.00989887
70.845 0.016787
70.885 0.0122305
70.925 0.0294322
70.965 0.00508089
71.005 0.0255023
71.045 0.0417875
71.085 0.0414449
71.125 0.0306648
71.165 0.0341321
71.205 0.0456807
71.245 0.0435062
71.285 0.052425
71.325 0.0458033
71.365 0.0761941
71.405 0.0730037
71.445 0.102442
71.485 0.118264
71.525 0.114631
71.565 0.0836287
71.605 0.0982514
71.645 0.07919
71.685 0.0882178
71.725 0.1398
71.765 0.167532
71.805 0.219055
71.845 0.247419
71.885 0.242562
71.925 0.22259
71.965 0.216015
72.005 0.202194
72.045 0.161814
72.085 0.184778
72.125 0.153555
72.165 0.149758
72.205 0.103284
72.245 0.132815
72.285 0.0908665
72.325 0.0727233
72.365 0.0874165
72.405 0.0555603
72.445 0.0392744
72.485 0.0356075
72.525 0.0406404
72.565 0.0264771
72.605 0.0143526
72.645 0.0260868
72.685 0.00223359
72.725 0.0103691
72.765 0.00719567
72.805 0.00760223
72.845 0.0169098
72.885 0.0138299
72.925 0.011248
72.965 0.00646675
73.005 0.00389602
73.045 0.0123871
73.085 0.00813721
73.125 0.00868471
73.165 0.016429
73.205 0.0176341
73.245 0.027745
73.285 0.00993244
73.325 0.0115668
73.365 -0.00440011
73.405 -0.0152791
73.415 -0.0160773