File: data/xrd/xy/2018-07-12T19_22_54.635369+00_00_LBL.xy
'Id: "" Comment: "Integrate frame GPbI30_00_001.gfrmwith cursor Wedge Cursor #2" Operator: "UC Berkeley" Anode: "Co" Scantype: "TwoTheta" TimePerStep: "600"
13.76 -0.0220781
13.8 -0.0154422
13.84 0.00469879
13.88 -0.0208154
13.92 -0.00691385
13.96 0.0117802
14 0.0444478
14.04 0.0759092
14.08 0.025069
14.12 0.00686285
14.16 0.0154466
14.2 0.085599
14.24 0.0618122
14.28 0.00915962
14.32 0.100268
14.36 0.0705607
14.4 0.141157
14.44 0.212483
14.48 0.330255
14.52 0.47322
14.56 0.731101
14.6 0.833716
14.64 0.879365
14.68 0.803041
14.72 0.595193
14.76 0.380312
14.8 0.238349
14.84 0.134737
14.88 0.0423925
14.92 0.0127579
14.96 0.0585087
15 -0.00247087
15.04 0.00256334
15.08 0.0576837
15.12 0.031184
15.16 0.0035706
15.2 0.0291285
15.24 0.00428989
15.28 0.0235169
15.32 0.0102763
15.36 0.0312426
15.4 -0.00185363
15.44 0.0569601
15.48 0.0205086
15.52 0.00717603
15.56 0.000683918
15.6 0.0399364
15.64 0.0313924
15.68 0.0360757
15.72 0.04737
15.76 -0.0146463
15.8 0.0100372
15.84 0.00726392
15.88 0.0224236
15.92 0.0251117
15.96 0.0469241
16 0.00388938
16.04 0.00985227
16.08 -0.0070285
16.12 0.0331248
16.16 0.0610586
16.2 -0.0201503
16.24 0.0376168
16.28 0.0548013
16.32 0.0867
16.36 0.0883638
16.4 0.0724901
16.44 0.0860728
16.48 0.0770335
16.52 0.0486325
16.56 0.0790437
16.6 0.0835846
16.64 0.03556
16.68 0.0793434
16.72 0.0552027
16.76 0.0626918
16.8 0.0476645
16.84 0.0276652
16.88 0.0465877
16.92 0.0263536
16.96 0.0363216
17 0.019974
17.04 0.020276
17.08 0.0323302
17.12 0.0259262
17.16 0.0149514
17.2 0.0258595
17.24 0.0131562
17.28 0.00651243
17.32 0.0193193
17.36 -0.00688859
17.4 0.0337928
17.44 0.0161148
17.48 0.013923
17.52 0.0231589
17.56 0.0358655
17.6 0.0416061
17.64 0.0336067
17.68 0.0192577
17.72 0.0283278
17.76 0.0553825
17.8 0.0532529
17.84 0.00695626
17.88 0.0429326
17.92 0.0233546
17.96 -0.00367997
18 0.0415723
18.04 0.0468494
18.08 0.0426563
18.12 0.0256423
18.16 0.0292796
18.2 -0.000889146
18.24 0.031716
18.28 0.0118607
18.32 0.0454396
18.36 0.0303962
18.4 0.0187646
18.44 0.0382544
18.48 0.0260424
18.52 0.0164755
18.56 0.0255781
18.6 0.0269562
18.64 0.00883243
18.68 0.0431005
18.72 0.0155601
18.76 0.0390424
18.8 0.0465786
18.84 0.0271788
18.88 0.0446947
18.92 0.0435902
18.96 0.062902
19 0.0296007
19.04 0.00717991
19.08 0.00781708
19.12 0.00853682
19.16 0.0442758
19.2 0.0719979
19.24 0.0329954
19.28 0.00815585
19.32 0.0271229
19.36 0.0274373
19.4 0.0306597
19.44 0.0376509
19.48 0.0486134
19.52 0.0176563
19.56 0.0254133
19.6 0.0239377
19.64 -0.00258482
19.68 0.0257549
19.72 -8.8952e-05
19.76 0.0165438
19.8 0.0248878
19.84 -0.00373819
19.88 0.0259471
19.92 0.00464598
19.96 0.0101274
20 0.0385522
20.04 0.0224845
20.08 0.0126663
20.12 0.0385718
20.16 0.0378205
20.2 0.0249482
20.24 0.0280851
20.28 -0.0134409
20.32 0.0108101
20.36 -0.0160407
20.4 0.0109247
20.44 -0.0135103
20.48 0.0357094
20.52 0.0383285
20.56 0.036742
20.6 -0.0022677
20.64 0.0533782
20.68 0.029784
20.72 0.0199585
20.76 0.00950883
20.8 0.0272954
20.84 0.0123103
20.88 0.0134581
20.92 -0.00636677
20.96 0.0231671
21 0.0274423
21.04 0.0122176
21.08 0.0232966
21.12 0.0605658
21.16 0.0446541
21.2 0.0172512
21.24 -0.00692233
21.28 0.0240232
21.32 0.0242819
21.36 0.0584759
21.4 0.0303857
21.44 0.00292207
21.48 0.0110583
21.52 -0.0157743
21.56 0.0338637
21.6 0.0334585
21.64 0.0532643
21.68 0.0380672
21.72 0.0445363
21.76 0.033575
21.8 0.00875403
21.84 0.019222
21.88 0.0219572
21.92 0.0412506
21.96 -0.00347385
22 0.0305484
22.04 0.0311594
22.08 0.0184851
22.12 0.0313467
22.16 0.0608322
22.2 0.0305703
22.24 0.0269949
22.28 0.014291
22.32 0.021282
22.36 0.0389057
22.4 0.0153858
22.44 0.00800247
22.48 0.0334651
22.52 0.0256209
22.56 0.0424568
22.6 0.0164774
22.64 0.0265627
22.68 0.0191251
22.72 0.0146399
22.76 0.0215827
22.8 0.0311612
22.84 0.0271539
22.88 0.0214296
22.92 0.0500372
22.96 0.0328892
23 0.025683
23.04 0.0433331
23.08 0.0265874
23.12 0.0423669
23.16 0.0354189
23.2 0.0316114
23.24 0.0487011
23.28 0.0192377
23.32 0.0279811
23.36 0.0323127
23.4 0.043647
23.44 0.0366946
23.48 -0.0123959
23.52 0.0493061
23.56 0.0348362
23.6 0.0407135
23.64 0.0633016
23.68 0.0557156
23.72 0.0375099
23.76 0.0295235
23.8 0.0425443
23.84 0.0376014
23.88 0.0560795
23.92 0.01718
23.96 0.0373608
24 0.0459331
24.04 0.0439827
24.08 0.0256566
24.12 0.0426464
24.16 0.0228964
24.2 0.0295933
24.24 0.0382813
24.28 0.0811747
24.32 0.0289425
24.36 0.0315024
24.4 0.0524619
24.44 0.0377852
24.48 0.025253
24.52 0.0425141
24.56 0.0426604
24.6 0.0314912
24.64 0.0155433
24.68 0.0688954
24.72 0.0488248
24.76 0.0495321
24.8 0.0442518
24.84 0.00707995
24.88 0.0672946
24.92 0.022684
24.96 0.0522046
25 0.0481608
25.04 0.0679062
25.08 0.0873507
25.12 0.099806
25.16 0.0769362
25.2 0.063397
25.24 0.12366
25.28 0.109158
25.32 0.0962084
25.36 0.104026
25.4 0.150226
25.44 0.14151
25.48 0.181936
25.52 0.171253
25.56 0.208363
25.6 0.227054
25.64 0.291269
25.68 0.33838
25.72 0.400824
25.76 0.412184
25.8 0.572674
25.84 0.64698
25.88 0.829112
25.92 1.08732
25.96 1.30507
26 1.65777
26.04 1.97405
26.08 2.26607
26.12 2.40819
26.16 2.29858
26.2 2.22353
26.24 1.86301
26.28 1.50749
26.32 1.20081
26.36 0.919384
26.4 0.666011
26.44 0.487331
26.48 0.393958
26.52 0.250359
26.56 0.207743
26.6 0.171276
26.64 0.12937
26.68 0.123421
26.72 0.0929454
26.76 0.0691285
26.8 0.0859605
26.84 0.0976542
26.88 0.049398
26.92 0.0584529
26.96 0.0521485
27 0.0868505
27.04 0.0931984
27.08 0.11592
27.12 0.123636
27.16 0.0908185
27.2 0.0408367
27.24 0.0388505
27.28 0.0355197
27.32 0.0139286
27.36 0.00794797
27.4 -0.00620039
27.44 0.0198754
27.48 0.0260238
27.52 -0.0200681
27.56 0.0117858
27.6 0.0318678
27.64 0.0209181
27.68 0.0156045
27.72 0.0174303
27.76 0.0261764
27.8 0.0217697
27.84 0.0147117
27.88 0.0403537
27.92 0.027795
27.96 0.0136279
28 0.0344923
28.04 0.022221
28.08 0.0324858
28.12 0.0261468
28.16 0.0536824
28.2 0.0374131
28.24 0.0508853
28.28 0.0540261
28.32 0.0298745
28.36 0.0130407
28.4 0.0336706
28.44 0.0389579
28.48 0.0217944
28.52 0.0203516
28.56 0.015924
28.6 0.0206401
28.64 -0.0134169
28.68 0.0278712
28.72 0.0360924
28.76 0.0192136
28.8 0.0133328
28.84 0.0105032
28.88 0.0504662
28.92 0.0266142
28.96 -0.00152863
29 0.0177632
29.04 -1.20182e-05
29.08 0.0106395
29.12 0.0181334
29.16 0.0249841
29.2 0.0370236
29.24 0.0217987
29.28 0.0269769
29.32 0.0499972
29.36 0.0869539
29.4 0.125485
29.44 0.224791
29.48 0.276278
29.52 0.309422
29.56 0.318052
29.6 0.267438
29.64 0.219234
29.68 0.143679
29.72 0.0857431
29.76 0.0743711
29.8 0.0576201
29.84 0.0516607
29.88 0.062492
29.92 0.0926585
29.96 0.125465
30 0.155676
30.04 0.197306
30.08 0.175168
30.12 0.18496
30.16 0.0905101
30.2 0.072848
30.24 0.06917
30.28 0.049008
30.32 0.0422364
30.36 0.0203724
30.4 0.00792104
30.44 0.0324837
30.48 0.0274169
30.52 0.00278864
30.56 -0.0185028
30.6 -0.0184828
30.64 -0.00685444
30.68 0.00935546
30.72 -0.00688948
30.76 0.0317118
30.8 -0.0136302
30.84 0.00168886
30.88 0.00834958
30.92 0.0233528
30.96 0.00942127
31 -0.0111587
31.04 0.0211525
31.08 0.0340703
31.12 0.0128272
31.16 2.35461e-05
31.2 0.0197726
31.24 0.00890402
31.28 0.0103392
31.32 0.0237424
31.36 0.0131238
31.4 0.00677519
31.44 0.00928855
31.48 0.0222242
31.52 0.00899345
31.56 0.0136307
31.6 0.00593743
31.64 0.011381
31.68 -0.00431457
31.72 -0.000393979
31.76 0.0233093
31.8 0.0388151
31.84 0.0044835
31.88 0.0354951
31.92 0.0048639
31.96 0.00875905
32 0.0298966
32.04 0.0194181
32.08 0.0163458
32.12 0.00292317
32.16 0.0255574
32.2 0.0286538
32.24 0.02274
32.28 0.0328545
32.32 0.0264861
32.36 0.016732
32.4 0.0186097
32.44 0.0188506
32.48 0.0355182
32.52 0.030541
32.56 0.00898193
32.6 0.0251818
32.64 0.0124284
32.68 0.0405692
32.72 0.00119732
32.76 0.00148549
32.8 -0.00062095
32.84 0.0111383
32.88 0.0015276
32.92 0.0158978
32.96 0.00209419
33 0.00802988
33.04 0.0194103
33.08 0.0143353
33.12 0.0114428
33.16 0.0261066
33.2 0.0122751
33.24 0.00888088
33.28 0.00516219
33.32 0.00618513
33.36 0.00107697
33.4 0.00483974
33.44 0.0166681
33.48 0.00517737
33.52 0.0161126
33.56 0.0328916
33.6 0.00927741
33.64 0.00817944
33.68 0.0209623
33.72 -6.30742e-05
33.76 0.0129435
33.8 0.00391443
33.84 0.00668652
33.88 0.00691739
33.92 0.00749038
33.96 0.0126228
34 -0.00681127
34.04 0.0295646
34.08 0.0214619
34.12 0.0236104
34.16 0.0410116
34.2 0.0857349
34.24 0.125082
34.28 0.202035
34.32 0.40386
34.36 0.734733
34.4 0.996922
34.44 1.18006
34.48 1.17078
34.52 0.93407
34.56 0.614069
34.6 0.344011
34.64 0.197712
34.68 0.13598
34.72 0.0878192
34.76 0.0654995
34.8 0.0569495
34.84 0.0498758
34.88 0.0549817
34.92 0.0751696
34.96 0.0965324
35 0.151606
35.04 0.164899
35.08 0.237038
35.12 0.27421
35.16 0.288543
35.2 0.292663
35.24 0.273402
35.28 0.244125
35.32 0.219943
35.36 0.196855
35.4 0.157993
35.44 0.135797
35.48 0.108173
35.52 0.0981811
35.56 0.0949502
35.6 0.0676699
35.64 0.0632888
35.68 0.0411589
35.72 0.0350377
35.76 0.0400538
35.8 0.0405589
35.84 0.0361162
35.88 0.0283787
35.92 0.0346751
35.96 0.0236137
36 0.0246034
36.04 0.033519
36.08 0.0241429
36.12 0.00736241
36.16 0.017458
36.2 0.00314325
36.24 0.0144753
36.28 -0.00453179
36.32 0.00104257
36.36 0.00438527
36.4 0.00159787
36.44 0.0190026
36.48 -0.00611883
36.52 0.00796258
36.56 -0.00402662
36.6 0.004201
36.64 -0.00879275
36.68 0.00199037
36.72 -0.00691721
36.76 -0.00341559
36.8 0.0093519
36.84 -0.00373172
36.88 -0.00239036
36.92 0.0114313
36.96 0.0195914
37 0.009822
37.04 0.00788589
37.08 0.00838967
37.12 -0.00311641
37.16 0.0093166
37.2 0.00423589
37.24 0.0145726
37.28 0.00068442
37.32 0.00946578
37.36 -0.00269352
37.4 0.00933531
37.44 0.00672085
37.48 -0.00706504
37.52 0.00271598
37.56 -0.00662543
37.6 -0.0084882
37.64 -0.0043509
37.68 -0.000361959
37.72 -0.00991795
37.76 -0.00704548
37.8 0.0238224
37.84 0.00152584
37.88 -0.000747675
37.92 0.00882922
37.96 -0.00277744
38 0.0070982
38.04 -0.0102894
38.08 -0.0118968
38.12 0.0107166
38.16 0.0205357
38.2 0.00578667
38.24 0.00571224
38.28 0.0100691
38.32 0.00618935
38.36 0.0151593
38.4 0.00778477
38.44 0.0139336
38.48 0.0122642
38.52 0.00398471
38.56 0.0142276
38.6 0.0214863
38.64 0.0354254
38.68 0.0283836
38.72 0.0268109
38.76 0.0299321
38.8 0.0587369
38.84 0.0734691
38.88 0.0651123
38.92 0.0886503
38.96 0.0987701
39 0.117826
39.04 0.12192
39.08 0.162132
39.12 0.175632
39.16 0.202995
39.2 0.23519
39.24 0.25052
39.28 0.265278
39.32 0.282028
39.36 0.305351
39.4 0.319259
39.44 0.326664
39.48 0.331927
39.52 0.328292
39.56 0.349635
39.6 0.361405
39.64 0.364276
39.68 0.377554
39.72 0.435325
39.76 0.512173
39.8 0.585974
39.84 0.634205
39.88 0.625845
39.92 0.542586
39.96 0.467813
40 0.332503
40.04 0.232396
40.08 0.168456
40.12 0.102379
40.16 0.0578294
40.2 0.040041
40.24 0.0402088
40.28 0.0230341
40.32 0.00520104
40.36 0.012458
40.4 0.00702452
40.44 0.00367145
40.48 0.001917
40.52 -0.0104693
40.56 0.0135658
40.6 0.0171196
40.64 0.0117452
40.68 -0.000925636
40.72 -0.000207013
40.76 0.00298239
40.8 0.0154701
40.84 -0.00369622
40.88 0.010487
40.92 0.0119274
40.96 -0.00353949
41 -0.00368573
41.04 -0.00521485
41.08 -0.00229209
41.12 -0.00792395
41.16 -0.00724785
41.2 -0.0103818
41.24 -0.0121666
41.28 -0.0087886
41.32 -0.0064591
41.36 -0.00713056
41.4 -0.00361469
41.44 0.00569773
41.48 -0.0159685
41.52 -0.00564147
41.56 0.00323601
41.6 -0.0110698
41.64 -0.00688037
41.68 -0.0136498
41.72 -0.00374848
41.76 -0.00281374
41.8 -0.00604472
41.84 -0.00229983
41.88 0.00181805
41.92 -0.00116294
41.96 -0.0062272
42 -0.00747137
42.04 -0.00508119
42.08 -0.00442885
42.12 0.00278345
42.16 0.00586566
42.2 -0.00563785
42.24 -0.0140079
42.28 -0.0135938
42.32 -0.0144163
42.36 0.00947369
42.4 -0.00500495
42.44 0.0131103
42.48 0.00555066
42.52 0.0074397
42.56 0.00986553
42.6 -0.00453512
42.64 -0.0017012
42.68 -0.0029209
42.72 0.00481192
42.76 -0.00689196
42.8 -0.00169412
42.84 0.00674412
42.88 0.00203644
42.92 0.00705363
42.96 0.000886614
43 -0.000894743
43.04 -0.0092621
43.08 -0.000897885
43.12 0.0250081
43.16 0.0031731
43.2 -0.000371017
43.24 0.0070153
43.28 0.0166628
43.32 0.0129665
43.36 0.0190671
43.4 0.00627435
43.44 -0.00217602
43.48 0.0100643
43.52 0.0117027
43.56 0.012049
43.6 -0.00888088
43.64 0.0154927
43.68 0.00255445
43.72 0.0153882
43.76 -0.0142713
43.8 0.018335
43.84 -0.0017398
43.88 0.01089
43.92 0.00836167
43.96 0.0285205
44 0.0243727
44.04 0.00141187
44.08 -0.00387437
44.12 -0.004477
44.16 0.0142605
44.2 0.0257819
44.24 0.0284265
44.28 0.00776198
44.32 0.00692722
44.36 -0.0109835
44.4 -0.00957643
44.44 0.0264013
44.48 0.0103831
44.52 0.0161399
44.56 0.0174673
44.6 0.0325934
44.64 0.0392288
44.68 0.0371
44.72 0.0537938
44.76 0.0834009
44.8 0.132108
44.84 0.190765
44.88 0.349376
44.92 0.594998
44.96 0.880557
45 1.17358
45.04 1.37555
45.08 1.27243
45.12 1.02684
45.16 0.691457
45.2 0.442332
45.24 0.245068
45.28 0.119294
45.32 0.0620758
45.36 0.038362
45.4 0.0432702
45.44 0.030753
45.48 0.00910072
45.52 0.0106115
45.56 0.010994
45.6 0.0104814
45.64 0.00746239
45.68 0.0147407
45.72 0.0327448
45.76 0.0512248
45.8 0.0673161
45.84 0.0822147
45.88 0.0904358
45.92 0.0864336
45.96 0.136654
46 0.148309
46.04 0.194474
46.08 0.238597
46.12 0.290557
46.16 0.281573
46.2 0.204865
46.24 0.135952
46.28 0.112645
46.32 0.0795629
46.36 0.0603608
46.4 0.0539736
46.44 0.0437877
46.48 0.0147506
46.52 0.0240844
46.56 0.0292992
46.6 0.0270736
46.64 0.0246976
46.68 0.0170765
46.72 0.0262413
46.76 0.0349502
46.8 0.0272413
46.84 0.0204831
46.88 0.0279455
46.92 0.00449542
46.96 0.0083797
47 0.0209328
47.04 0.015922
47.08 0.00286565
47.12 0.00343257
47.16 -0.0100491
47.2 0.0116929
47.24 0.0140118
47.28 0.0180349
47.32 0.00335473
47.36 -0.000210376
47.4 0.00284138
47.44 0.00587925
47.48 0.0163079
47.52 0.00628756
47.56 -0.0111562
47.6 -0.000111038
47.64 -0.0049479
47.68 0.00453709
47.72 -0.00180435
47.76 -0.0012428
47.8 0.0146273
47.84 -0.00465024
47.88 0.0145136
47.92 0.0190719
47.96 -0.0073787
48 0.00248049
48.04 0.0101403
48.08 -0.00119444
48.12 0.00570856
48.16 0.00981878
48.2 0.0110631
48.24 0.00134137
48.28 0.00132729
48.32 0.00105733
48.36 0.0200075
48.4 0.00898883
48.44 0.0254661
48.48 0.0253246
48.52 0.026394
48.56 0.0423048
48.6 0.0366999
48.64 0.0650158
48.68 0.064062
48.72 0.0424321
48.76 0.0265476
48.8 0.0151894
48.84 0.01476
48.88 0.00862644
48.92 -0.0135974
48.96 0.00106259
49 -0.00591598
49.04 -0.00336941
49.08 -0.0053312
49.12 -0.0074056
49.16 -0.00437687
49.2 -0.00317003
49.24 -0.0132636
49.28 -0.00310414
49.32 -0.000152565
49.36 -0.00850893
49.4 -0.00748402
49.44 0.009954
49.48 0.00315372
49.52 0.000242394
49.56 0.00165858
49.6 -0.00896828
49.64 0.00140762
49.68 0.00325658
49.72 -0.0143956
49.76 -0.0117637
49.8 0.0097351
49.84 0.00603711
49.88 0.00479707
49.92 0.010984
49.96 0.00857708
50 0.00516304
50.04 0.00467414
50.08 0.00706949
50.12 0.00113089
50.16 -0.00719196
50.2 0.00160725
50.24 -0.0011316
50.28 -0.00676744
50.32 0.0045569
50.36 0.00619678
50.4 -0.00793651
50.44 0.0012503
50.48 0.00644181
50.52 -0.00917037
50.56 -0.00220707
50.6 0.00465154
50.64 0.00603536
50.68 -0.00422989
50.72 -0.0105026
50.76 0.00983839
50.8 0.00317982
50.84 -0.00672443
50.88 -0.00156489
50.92 0.00420171
50.96 0.00193118
51 -0.00631341
51.04 -0.00327692
51.08 -0.00181608
51.12 0.000488557
51.16 0.00103749
51.2 -0.00670233
51.24 0.00408262
51.28 -4.24546e-05
51.32 0.00539786
51.36 -0.0123631
51.4 -0.00446972
51.44 0.00212035
51.48 0.00441128
51.52 -0.00818108
51.56 0.00155457
51.6 -0.0101274
51.64 -0.00304442
51.68 0.00463291
51.72 -0.00821957
51.76 -0.00472191
51.8 -0.00710279
51.84 0.00299189
51.88 0.00215185
51.92 0.00767285
51.96 0.000284045
52 0.00122496
52.04 -0.0058081
52.08 0.00970971
52.12 0.0127256
52.16 0.0055531
52.2 0.0110862
52.24 0.0173233
52.28 0.00697963
52.32 0.0163266
52.36 0.016803
52.4 0.00454258
52.44 0.0221129
52.48 0.0142872
52.52 0.0170489
52.56 0.0291507
52.6 0.0329407
52.64 0.0545779
52.68 0.058812
52.72 0.088121
52.76 0.0967371
52.8 0.144723
52.84 0.180319
52.88 0.211939
52.92 0.212332
52.96 0.199342
53 0.158228
53.04 0.131852
53.08 0.0938081
53.12 0.0841934
53.16 0.0397876
53.2 0.0166261
53.24 0.0139187
53.28 0.0133926
53.32 0.0064003
53.36 0.000374
53.4 0.0109446
53.44 0.0123639
53.48 -0.00412393
53.52 0.00427871
53.56 -0.00277698
53.6 -0.000557121
53.64 0.0158766
53.68 -0.0132386
53.72 0.00969925
53.76 -0.00598933
53.8 0.00491478
53.84 0.0200777
53.88 0.0167044
53.92 0.00650744
53.96 0.00168504
54 -0.00262084
54.04 0.00160074
54.08 -0.00124
54.12 0.00993742
54.16 0.000448886
54.2 0.0141637
54.24 0.0173498
54.28 0.0217343
54.32 0.0120656
54.36 0.0179121
54.4 0.0150113
54.44 0.0113205
54.48 0.0108338
54.52 0.00188624
54.56 0.0120995
54.6 0.00463047
54.64 0.0105403
54.68 0.00609332
54.72 0.0175358
54.76 0.0103427
54.8 0.0138596
54.84 0.0098419
54.88 0.0195674
54.92 0.0208088
54.96 0.0283323
55 0.0321058
55.04 0.0417538
55.08 0.0357721
55.12 0.044295
55.16 0.0562333
55.2 0.0706058
55.24 0.0723839
55.28 0.0860372
55.32 0.0863455
55.36 0.108075
55.4 0.107688
55.44 0.102555
55.48 0.110576
55.52 0.117467
55.56 0.139244
55.6 0.129873
55.64 0.125636
55.68 0.137854
55.72 0.133889
55.76 0.112819
55.8 0.120423
55.84 0.105382
55.88 0.106308
55.92 0.0964996
55.96 0.0815641
56 0.108554
56.04 0.113409
56.08 0.127395
56.12 0.104715
56.16 0.0721358
56.2 0.0830661
56.24 0.0491963
56.28 0.0276627
56.32 0.0115948
56.36 0.00413801
56.4 -0.000211952
56.44 0.00234082
56.48 0.0014699
56.52 -0.00367768
56.56 -0.00456081
56.6 0.000712213
56.64 -0.00271285
56.68 -0.00615827
56.72 -0.00930813
56.76 -0.00373748
56.8 -0.00223158
56.84 -0.0120579
56.88 -0.00627995
56.92 -0.00812272
56.96 0.00818884
57 -0.00155558
57.04 -3.48833e-05
57.08 0.00256058
57.12 0.00322092
57.16 -0.000721558
57.2 -0.00221554
57.24 0.00537122
57.28 0.00487268
57.32 -0.0130715
57.36 0.0140038
57.4 0.0106977
57.44 0.00622281
57.48 0.0107638
57.52 0.0162025
57.56 -0.00690915
57.6 0.0203764
57.64 0.00955233
57.68 0.0268213
57.72 0.0142427
57.76 0.0035931
57.8 0.00358587
57.84 0.00364852
57.88 -0.00129592
57.92 0.00838573
57.96 0.00259008
58 0.0142072
58.04 0.00492319
58.08 -0.00351901
58.12 0.00209019
58.16 -0.0127178
58.2 -0.0120395
58.24 0.00193464
58.28 -0.00620286
58.32 -0.00486116
58.36 0.000450737
58.4 -0.00316558
58.44 0.0217358
58.48 0.00939585
58.52 0.018297
58.56 0.0223056
58.6 0.0310981
58.64 0.032332
58.68 0.033786
58.72 0.0530044
58.76 0.039976
58.8 0.0262838
58.84 0.0162127
58.88 0.0137289
58.92 0.0102181
58.96 0.0204904
59 0.020522
59.04 -4.91595e-05
59.08 0.00810161
59.12 0.0126608
59.16 0.00606265
59.2 0.0110083
59.24 0.0143555
59.28 0.00942253
59.32 -0.00865722
59.36 0.0156093
59.4 0.000547407
59.44 0.021903
59.48 0.00195039
59.52 0.0161973
59.56 0.00188769
59.6 0.0150354
59.64 0.00381403
59.68 0.00165658
59.72 -0.00528214
59.76 0.0104026
59.8 -0.00260601
59.84 0.0145475
59.88 0.0101577
59.92 -0.000564054
59.96 0.00493348
60 0.0132528
60.04 0.00439722
60.08 0.00413654
60.12 0.000841506
60.16 -0.00108699
60.2 -0.00324448
60.24 0.000151124
60.28 0.00352574
60.32 -0.00216202
60.36 -0.00289287
60.4 0.0142709
60.44 0.00787497
60.48 -0.00376992
60.52 0.00207415
60.56 0.00440805
60.6 -0.0043141
60.64 0.00953674
60.68 0.011929
60.72 -0.0103258
60.76 0.00918216
60.8 -0.00387123
60.84 -0.000577805
60.88 0.0264387
60.92 0.0135904
60.96 0.0217784
61 0.038203
61.04 0.0471473
61.08 0.0407143
61.12 0.058387
61.16 0.0821604
61.2 0.106689
61.24 0.11752
61.28 0.140673
61.32 0.216769
61.36 0.249722
61.4 0.31133
61.44 0.34059
61.48 0.354507
61.52 0.353201
61.56 0.304592
61.6 0.258724
61.64 0.201903
61.68 0.175084
61.72 0.123722
61.76 0.100833
61.8 0.0472614
61.84 0.0421443
61.88 0.0490534
61.92 0.0207455
61.96 0.0235617
62 0.0274877
62.04 0.0118921
62.08 0.0212116
62.12 0.0227732
62.16 0.0301774
62.2 0.0374682
62.24 0.0374539
62.28 0.0261687
62.32 0.0388296
62.36 0.0477957
62.4 0.0537933
62.44 0.0397907
62.48 0.0567046
62.52 0.0817561
62.56 0.092814
62.6 0.0807757
62.64 0.0537857
62.68 0.071086
62.72 0.0592386
62.76 0.0504919
62.8 0.0273164
62.84 0.0248359
62.88 0.0158955
62.92 0.0120798
62.96 0.0088936
63 0.0129286
63.04 -0.00906917
63.08 0.00818367
63.12 0.0124822
63.16 0.00514578
63.2 -0.00323174
63.24 0.00794544
63.28 -0.00398287
63.32 -0.00151401
63.36 0.00403498
63.4 0.000856647
63.44 0.0182856
63.48 0.00525217
63.52 -0.00113535
63.56 -0.00132266
63.6 0.00308641
63.64 0.00452304
63.68 0.00421913
63.72 0.00202124
63.76 0.00968841
63.8 0.00663463
63.84 -0.00144026
63.88 -0.00205005
63.92 -0.00954032
63.96 -0.00233045
64 -0.00100411
64.04 0.00161368
64.08 -0.00322519
64.12 -0.000807881
64.16 0.00146437
64.2 -0.0108357
64.24 0.0199459
64.28 -0.000204783
64.32 0.00127249
64.36 -0.00191285
64.4 0.00239747
64.44 0.0080736
64.48 -0.00564881
64.52 0.00960521
64.56 -0.00652107
64.6 0.00407771
64.64 0.0106711
64.68 0.00236244
64.72 0.00949196
64.76 -0.00294283
64.8 0.00366872
64.84 0.00440269
64.88 0.00166973
64.92 0.00950712
64.96 0.00747889
65 -0.00543288
65.04 0.0129293
65.08 -0.00610293
65.12 0.00893399
65.16 -0.00346349
65.2 0.0240254
65.24 0.00912012
65.28 0.000499423
65.32 0.00287447
65.36 0.00493569
65.4 -0.00524047
65.44 0.005926
65.48 0.00434406
65.52 0.00578803
65.56 0.0214479
65.6 0.0159219
65.64 0.0102354
65.68 0.00131343
65.72 0.0099543
65.76 -0.00122686
65.8 0.0127874
65.84 0.00485426
65.88 0.000757206
65.92 0.0053921
65.96 0.00356552
66 0.0182028
66.04 0.0252624
66.08 0.015135
66.12 0.024671
66.16 0.0299621
66.2 0.0377747
66.24 0.0498732
66.28 0.0875704
66.32 0.121834
66.36 0.153444
66.4 0.183969
66.44 0.184094
66.48 0.21247
66.52 0.187843
66.56 0.168029
66.6 0.144833
66.64 0.128876
66.68 0.0958696
66.72 0.0634429
66.76 0.04341
66.8 0.0284452
66.84 0.0221082
66.88 0.00447671
66.92 5.12536e-06
66.96 0.0108286
67 0.00220749
67.04 0.00664352
67.08 -0.0116944
67.12 -0.00113646
67.16 -0.00463453
67.2 0.00916373
67.24 -0.00635012
67.28 0.018193
67.32 0.0109222
67.36 0.0177669
67.4 -0.00090332
67.44 0.0119883
67.48 0.0162362
67.52 0.0136031
67.56 0.00645644
67.6 -0.00615036
67.64 0.00385444
67.68 0.00933409
67.72 0.00911744
67.76 0.00231641
67.8 0.000252605
67.84 -0.00177623
67.88 0.0265201
67.92 0.0475972
67.96 0.0484721
68 0.0418331
68.04 0.0526112
68.08 0.0480101
68.12 0.0452384
68.16 0.0352325
68.2 0.0300208
68.24 0.0199059
68.28 0.00907353
68.32 0.013787
68.36 0.0131249
68.4 -0.00461214
68.44 0.00414796
68.48 0.00518505
68.52 -0.00631035
68.56 -0.0118499
68.6 -0.000766097
68.64 -0.000162514
68.68 0.0119059
68.72 0.0103952
68.76 0.000734644
68.8 0.00174004
68.84 0.0100808
68.88 0.0169044
68.92 0.0100785
68.96 0.0113865
69 0.0237425
69.04 0.00280308
69.08 0.0135661
69.12 0.00102038
69.16 0.00152854
69.2 0.00890698
69.24 0.0257063
69.28 -0.00351368
69.32 -0.00319305
69.36 0.00550625
69.4 0.00454102
69.44 -0.00805736
69.48 0.000464562
69.52 -0.000405415
69.56 -0.00200084
69.6 -0.00902332
69.64 0.00802851
69.68 0.00433266
69.72 -0.00458649
69.76 0.00137099
69.8 -0.00449266
69.84 -0.00109559
69.88 0.00472087
69.92 0.00244753
69.96 -0.00163777
70 -0.00765798
70.04 -0.00342788
70.08 0.00717874
70.12 0.00998084
70.16 0.000424588
70.2 0.0168261
70.24 0.00455088
70.28 -0.00360985
70.32 -0.00888256
70.36 0.0127315
70.4 -0.00832194
70.44 -0.00605523
70.48 0.00372636
70.52 0.000702845
70.56 -0.000518708
70.6 0.00785843
70.64 0.00231472
70.68 -0.0057501
70.72 -0.000643736
70.76 0.00367823
70.8 0.00109078
70.84 -0.00276381
70.88 0.00205917
70.92 -0.0036133
70.96 -0.00279022
71 -0.00792767
71.04 -0.00813728
71.07 -0.0119923