File: data/xrd/xy/2018-09-17T21_43_06.730215+00_00_LBL.xy
'Id: "" Comment: "Integrate frame perovskite1_03_001.gfrmwith cursor Wedge Cursor #6" Operator: "UC Berkeley" Anode: "Co" Scantype: "TwoTheta" TimePerStep: "300"
14.16 -0.0293128
14.2 0.0524026
14.24 0.0542617
14.28 0.0479298
14.32 0.00501098
14.36 0.0426758
14.4 0.0746506
14.44 0.102979
14.48 0.0142379
14.52 0.00381636
14.56 0.0603041
14.6 0.0522569
14.64 0.0690208
14.68 0.0779303
14.72 0.0166306
14.76 0.0909991
14.8 0.0782722
14.84 0.104143
14.88 0.093898
14.92 0.060225
14.96 0.0347206
15 0.108255
15.04 0.0994276
15.08 0.0793643
15.12 0.0769687
15.16 0.00145977
15.2 0.0694204
15.24 0.0620619
15.28 0.0810737
15.32 0.0599685
15.36 0.0523959
15.4 0.0705659
15.44 0.0609866
15.48 0.0946443
15.52 0.091097
15.56 0.0274153
15.6 0.0669424
15.64 0.111466
15.68 0.0647381
15.72 0.0839046
15.76 0.0681289
15.8 0.0544981
15.84 0.054508
15.88 0.082879
15.92 0.0727304
15.96 0.0858319
16 0.0694395
16.04 0.0253973
16.08 0.0742455
16.12 0.0238973
16.16 0.0695892
16.2 0.0143984
16.24 0.0761001
16.28 0.0669537
16.32 0.0736107
16.36 0.0688329
16.4 0.0929431
16.44 0.0476806
16.48 0.0156283
16.52 0.0869101
16.56 0.0761848
16.6 0.0546264
16.64 0.0340733
16.68 0.0444182
16.72 0.026922
16.76 0.0527044
16.8 0.0563606
16.84 0.0362853
16.88 0.0421895
16.92 0.0294735
16.96 0.0367947
17 -0.000651183
17.04 -0.0174141
17.08 0.067769
17.12 0.0943849
17.16 0.0284262
17.2 0.0453604
17.24 -0.00369441
17.28 0.0144694
17.32 0.0710789
17.36 0.00691532
17.4 0.0469517
17.44 0.0114301
17.48 0.012123
17.52 0.058592
17.56 0.0396615
17.6 0.0559825
17.64 0.0334172
17.68 0.0554511
17.72 0.0667257
17.76 0.0789181
17.8 0.0765705
17.84 0.0330791
17.88 0.0332102
17.92 0.0155183
17.96 0.0144432
18 -0.00824901
18.04 0.0236312
18.08 0.000682903
18.12 0.0536794
18.16 0.0466447
18.2 -0.0163634
18.24 0.0197238
18.28 0.0512364
18.32 0.0210616
18.36 -0.000470272
18.4 0.0589447
18.44 0.00172874
18.48 -0.00392245
18.52 0.0124691
18.56 0.0368219
18.6 0.0294526
18.64 0.021043
18.68 0.0255228
18.72 0.000967346
18.76 0.0316055
18.8 -0.000748647
18.84 0.0215765
18.88 0.0209652
18.92 0.0532055
18.96 0.0876545
19 0.052119
19.04 0.0438609
19.08 0.0406657
19.12 0.0246224
19.16 0.051838
19.2 0.0110471
19.24 0.0149626
19.28 0.0182669
19.32 -0.0115056
19.36 0.00821291
19.4 0.0361756
19.44 0.0551388
19.48 0.0403214
19.52 0.0734947
19.56 0.00326897
19.6 0.0549661
19.64 0.028317
19.68 0.0292688
19.72 0.0250105
19.76 0.0217916
19.8 0.0269421
19.84 0.0697102
19.88 0.0978908
19.92 -0.026685
19.96 0.000687904
20 0.00107874
20.04 0.039507
20.08 0.0556735
20.12 0.0367648
20.16 0.0100808
20.2 0.0658334
20.24 0.0360946
20.28 0.0429855
20.32 0.033406
20.36 0.0510508
20.4 0.0416396
20.44 0.04682
20.48 0.0255507
20.52 0.0351378
20.56 0.0175857
20.6 0.0240771
20.64 0.055984
20.68 0.0237065
20.72 0.010553
20.76 0.0207722
20.8 0.042183
20.84 0.0322302
20.88 0.0549411
20.92 0.0178855
20.96 0.03888
21 0.050188
21.04 0.0365569
21.08 0.0119671
21.12 0.0279995
21.16 0.0549324
21.2 0.0327825
21.24 0.0309015
21.28 0.0417658
21.32 0.0519181
21.36 0.0106128
21.4 0.00312945
21.44 0.0269109
21.48 0.0520381
21.52 0.0143466
21.56 0.0206516
21.6 0.00667973
21.64 0.0492793
21.68 0.0571309
21.72 0.0912448
21.76 0.0662628
21.8 0.0178881
21.84 0.0331797
21.88 0.0353655
21.92 0.0264381
21.96 0.0700705
22 0.0596738
22.04 0.0459252
22.08 0.0412254
22.12 0.0401909
22.16 0.0430101
22.2 0.0467842
22.24 0.0240875
22.28 0.0606376
22.32 0.0932747
22.36 0.0925025
22.4 0.0704856
22.44 0.0626715
22.48 0.0551457
22.52 0.056871
22.56 0.0246261
22.6 0.0711708
22.64 0.0398549
22.68 0.00427195
22.72 0.0279281
22.76 0.0650874
22.8 0.0348498
22.84 -0.00881508
22.88 0.055743
22.92 0.0451623
22.96 0.0329307
23 -0.000648522
23.04 0.0584416
23.08 0.0566768
23.12 0.0149487
23.16 0.0317368
23.2 0.0826618
23.24 0.0153104
23.28 0.0275223
23.32 0.0376612
23.36 0.0114402
23.4 0.0488728
23.44 -0.00320519
23.48 -0.0198161
23.52 0.0331776
23.56 0.0254515
23.6 0.0273526
23.64 0.0179768
23.68 0.0721041
23.72 0.0032361
23.76 0.00611254
23.8 0.0520813
23.84 0.016657
23.88 0.0247575
23.92 0.03138
23.96 0.0396296
24 0.0363334
24.04 0.0519747
24.08 0.0399926
24.12 -0.0157532
24.16 0.0123745
24.2 0.0254685
24.24 0.0409193
24.28 0.0467074
24.32 0.0248174
24.36 0.0122498
24.4 0.0271849
24.44 0.020992
24.48 0.06569
24.52 0.00617931
24.56 -0.00636311
24.6 0.0762893
24.64 -0.00760576
24.68 0.0429306
24.72 -1.29047e-05
24.76 -0.0140694
24.8 0.0307818
24.84 -0.0107453
24.88 0.0246919
24.92 0.0106297
24.96 0.0780055
25 -0.00166864
25.04 0.0255651
25.08 0.0666871
25.12 0.0634723
25.16 0.0153145
25.2 0.0227196
25.24 0.0573463
25.28 0.0477605
25.32 0.0300654
25.36 0.0235471
25.4 0.0359649
25.44 0.0347231
25.48 0.0169959
25.52 0.0422622
25.56 0.0454026
25.6 0.0385578
25.64 0.011457
25.68 0.0141172
25.72 0.047773
25.76 0.0351096
25.8 0.0128423
25.84 0.00216808
25.88 0.0269237
25.92 0.0624475
25.96 0.034978
26 0.0587514
26.04 0.0880053
26.08 0.0843389
26.12 0.113892
26.16 0.11668
26.2 0.13793
26.24 0.138551
26.28 0.223189
26.32 0.1777
26.36 0.175545
26.4 0.143891
26.44 0.0953485
26.48 0.0544705
26.52 0.0694777
26.56 0.0231844
26.6 0.0407806
26.64 0.0512655
26.68 0.0508176
26.72 0.0208524
26.76 0.0137855
26.8 0.0301299
26.84 0.0608033
26.88 0.0454931
26.92 0.0170791
26.96 -0.002016
27 0.0420911
27.04 0.069243
27.08 0.0710966
27.12 0.0377355
27.16 0.0678835
27.2 0.00693721
27.24 0.0367901
27.28 0.042307
27.32 0.0488534
27.36 0.0141028
27.4 0.0164395
27.44 0.0459839
27.48 0.0488569
27.52 0.0434674
27.56 0.0491355
27.6 0.0122628
27.64 0.024953
27.68 0.0395576
27.72 0.0532714
27.76 0.0504758
27.8 0.0557536
27.84 0.0728754
27.88 0.0299097
27.92 0.048663
27.96 0.0471185
28 0.0113156
28.04 0.0413558
28.08 0.0334185
28.12 0.0120101
28.16 0.0301701
28.2 0.0228829
28.24 0.0377802
28.28 -0.00385897
28.32 0.0127443
28.36 0.0301432
28.4 0.00333321
28.44 -0.00150902
28.48 0.0281097
28.52 0.0271403
28.56 0.0136732
28.6 -0.0109059
28.64 0.0581796
28.68 0.0285654
28.72 0.0481727
28.76 0.0162808
28.8 0.0347231
28.84 0.0252031
28.88 0.0109258
28.92 0.0231457
28.96 0.0296723
29 0.0104493
29.04 0.0290007
29.08 0.0555396
29.12 -0.0107966
29.16 0.0337606
29.2 0.00499358
29.24 0.035178
29.28 0.0293853
29.32 0.0216495
29.36 0.0144649
29.4 0.0247156
29.44 0.0571215
29.48 0.0482619
29.52 0.0298164
29.56 0.0538987
29.6 0.0357097
29.64 0.0305523
29.68 0.0684293
29.72 0.0312853
29.76 0.0900321
29.8 0.102279
29.84 0.117452
29.88 0.252688
29.92 0.468598
29.96 1.03576
30 1.83727
30.04 2.65196
30.08 2.68941
30.12 1.96256
30.16 1.1376
30.2 0.566658
30.24 0.222991
30.28 0.106416
30.32 0.0930474
30.36 0.0686684
30.4 0.0212294
30.44 0.0260967
30.48 0.0428484
30.52 0.0484491
30.56 0.00861456
30.6 0.0217689
30.64 0.0202903
30.68 -0.0203787
30.72 0.0326154
30.76 0.0243904
30.8 0.00173446
30.84 0.00159096
30.88 0.00745048
30.92 0.023791
30.96 0.0182579
31 -0.00470428
31.04 0.0243231
31.08 0.0511581
31.12 0.0268824
31.16 0.0954774
31.2 0.0995837
31.24 0.104822
31.28 0.0955928
31.32 0.0886687
31.36 0.0400605
31.4 0.0198847
31.44 0.0360317
31.48 0.0246968
31.52 0.0247574
31.56 -0.00707875
31.6 8.83622e-06
31.64 0.0209146
31.68 0.028995
31.72 0.0386027
31.76 9.71461e-05
31.8 0.0135411
31.84 -0.00946409
31.88 0.0191218
31.92 0.0085194
31.96 -0.0186774
32 0.00509912
32.04 0.023174
32.08 0.030713
32.12 0.0114586
32.16 0.0136363
32.2 0.0204766
32.24 0.00824036
32.28 0.0401294
32.32 0.0230839
32.36 0.0616191
32.4 0.0740369
32.44 0.0809783
32.48 0.0523601
32.52 0.0387591
32.56 0.0408898
32.6 -0.00183549
32.64 0.00807162
32.68 0.0133363
32.72 0.0176196
32.76 0.0181195
32.8 0.0253096
32.84 0.00571512
32.88 -0.00832868
32.92 0.0319075
32.96 0.0147335
33 0.0107167
33.04 -0.00987348
33.08 -0.0145983
33.12 0.00514502
33.16 0.0349061
33.2 0.0201529
33.24 -0.00361845
33.28 0.00174771
33.32 0.00730117
33.36 -0.00684384
33.4 0.00595124
33.44 0.00167043
33.48 0.0406763
33.52 0.00391284
33.56 0.0221812
33.6 0.0357804
33.64 4.39099e-05
33.68 -0.000237852
33.72 -0.0116157
33.76 0.0127869
33.8 -0.0108808
33.84 -0.0118916
33.88 0.00417883
33.92 -0.00495333
33.96 0.00475945
34 0.00775
34.04 -0.0117833
34.08 -0.00809258
34.12 -0.00246042
34.16 -0.0146388
34.2 0.0255103
34.24 0.0282901
34.28 0.0303093
34.32 0.020475
34.36 0.00817142
34.4 -0.00252994
34.44 -0.00545301
34.48 0.0278836
34.52 0.0171073
34.56 0.00872754
34.6 -0.000975399
34.64 0.0146141
34.68 0.00687786
34.72 0.03446
34.76 0.0155088
34.8 0.00618369
34.84 0.0118476
34.88 -0.0110036
34.92 -0.00632003
34.96 0.00372019
35 0.0047182
35.04 0.00203712
35.08 0.000390974
35.12 0.00329164
35.16 -0.0099725
35.2 -0.0196778
35.24 -0.00677794
35.28 -0.00620306
35.32 -0.0070053
35.36 0.00350317
35.4 -0.000911563
35.44 -0.0179177
35.48 0.0145709
35.52 0.0239425
35.56 0.00697294
35.6 1.67007e-05
35.64 0.0134283
35.68 -0.016734
35.72 -0.00618875
35.76 -0.0146067
35.8 -0.000408133
35.84 -0.0106254
35.88 -0.00669948
35.92 -0.00583724
35.96 0.00415512
36 0.0115317
36.04 0.0142271
36.08 0.0247737
36.12 0.0138
36.16 -0.0011447
36.2 0.0030985
36.24 -0.00160757
36.28 -0.00370434
36.32 -0.000649495
36.36 0.0134617
36.4 0.00842871
36.44 0.0259276
36.48 -0.0106
36.52 0.0155894
36.56 0.00684294
36.6 0.0182181
36.64 0.00489168
36.68 0.0163809
36.72 0.0153146
36.76 -0.0031264
36.8 0.00277351
36.84 -0.00443247
36.88 0.0184707
36.92 0.0276967
36.96 0.00903399
37 0.029403
37.04 0.00868374
37.08 0.010715
37.12 0.0185272
37.16 -0.000742251
37.2 0.0256952
37.24 0.0403973
37.28 0.0370002
37.32 0.016856
37.36 0.0377471
37.4 0.0632565
37.44 0.0818651
37.48 0.0976829
37.52 0.117548
37.56 0.186572
37.6 0.258426
37.64 0.40734
37.68 0.72633
37.72 1.37472
37.76 2.06338
37.8 2.2078
37.84 1.84186
37.88 1.46473
37.92 1.49985
37.96 1.83562
38 2.18325
38.04 2.08924
38.08 1.79485
38.12 1.26039
38.16 0.796541
38.2 0.439776
38.24 0.21437
38.28 0.114832
38.32 0.0965598
38.36 0.10457
38.4 0.090252
38.44 0.103001
38.48 0.0590245
38.52 0.0422122
38.56 0.0520087
38.6 0.0221297
38.64 0.0215292
38.68 0.0178629
38.72 0.00394017
38.76 0.0207618
38.8 0.00773697
38.84 -0.0033652
38.88 -0.0214612
38.92 0.00334547
38.96 0.00440991
39 -0.0050389
39.04 0.0116224
39.08 0.00095293
39.12 0.00106
39.16 0.00533516
39.2 0.00770221
39.24 0.00817768
39.28 0.0153574
39.32 0.0161733
39.36 0.0123965
39.4 0.00946108
39.44 0.0309733
39.48 0.0235524
39.52 0.0128082
39.56 0.0170984
39.6 0.0227527
39.64 0.0349983
39.68 0.0343084
39.72 0.0317508
39.76 0.0147931
39.8 0.00833893
39.84 0.0204531
39.88 0.0252307
39.92 0.00712915
39.96 0.0390849
40 -0.0186901
40.04 -0.0107747
40.08 0.0171531
40.12 0.025451
40.16 0.0126003
40.2 0.00221202
40.24 0.024472
40.28 0.00850566
40.32 0.0126286
40.36 -0.00928172
40.4 0.0049143
40.44 0.00107782
40.48 0.0196718
40.52 0.00522861
40.56 0.0282653
40.6 0.0331269
40.64 -0.0115779
40.68 0.00496419
40.72 0.00955984
40.76 -0.0172428
40.8 0.0060909
40.84 0.0223104
40.88 -0.0155782
40.92 0.00235505
40.96 0.000505143
41 0.00167248
41.04 0.0305334
41.08 0.0104887
41.12 0.024455
41.16 0.00987346
41.2 0.0205286
41.24 0.00775877
41.28 -0.0083469
41.32 -0.00562839
41.36 -0.000791576
41.4 0.00482793
41.44 -0.0023385
41.48 0.0280102
41.52 0.0118341
41.56 -0.012186
41.6 -0.0104612
41.64 0.00545234
41.68 0.00387859
41.72 -0.00434362
41.76 -0.00778127
41.8 -0.0048368
41.84 0.00797251
41.88 -0.00274209
41.92 0.0142724
41.96 0.0104837
42 0.0166757
42.04 0.0103061
42.08 0.00455164
42.12 0.00611365
42.16 0.0112901
42.2 0.0192174
42.24 0.0142266
42.28 -0.0075099
42.32 0.00425143
42.36 -0.00669303
42.4 -0.00632987
42.44 0.0122528
42.48 0.0234747
42.52 0.0056441
42.56 -0.00666632
42.6 0.0161023
42.64 0.0173713
42.68 0.00160192
42.72 -0.0188255
42.76 0.0193855
42.8 0.0269302
42.84 0.0156935
42.88 0.0235332
42.92 0.00972439
42.96 -0.0161796
43 0.00392385
43.04 -0.0130098
43.08 0.0116704
43.12 0.0178138
43.16 -0.00315308
43.2 0.00222205
43.24 0.000311484
43.28 -0.00544556
43.32 0.0458687
43.36 0.0178134
43.4 -0.015418
43.44 0.0161044
43.48 0.00996137
43.52 0.0277953
43.56 0.0240076
43.6 0.0172324
43.64 0.0391437
43.68 -0.00260093
43.72 0.0104313
43.76 0.0110191
43.8 0.0271087
43.84 0.0142274
43.88 -0.00057666
43.92 0.0117982
43.96 0.0373502
44 0.010899
44.04 0.026823
44.08 0.00760305
44.12 -0.00314487
44.16 0.0151391
44.2 0.0132442
44.24 0.0141183
44.28 0.0162207
44.32 0.0231207
44.36 -0.00550411
44.4 0.00585661
44.44 0.0130007
44.48 0.00289964
44.52 0.00520562
44.56 0.00649867
44.6 -0.00144806
44.64 -0.00247901
44.68 0.00630121
44.72 0.000475909
44.76 0.00822014
44.8 -0.00332287
44.84 -0.00241525
44.88 0.0209478
44.92 0.013492
44.96 0.00604367
45 0.00295163
45.04 -0.00431616
45.08 0.00885903
45.12 0.0394056
45.16 0.0106763
45.2 0.0659201
45.24 0.0902463
45.28 0.0726221
45.32 0.0491616
45.36 0.0312637
45.4 0.0253765
45.44 0.0107762
45.48 -0.00418019
45.52 0.0182787
45.56 0.00475167
45.6 0.017277
45.64 0.0478909
45.68 0.0408153
45.72 0.0697349
45.76 0.0472005
45.8 0.0753513
45.84 0.0493414
45.88 0.0306477
45.92 0.0151247
45.96 0.00595496
46 0.0146879
46.04 0.012038
46.08 0.0263941
46.12 0.027409
46.16 0.00425968
46.2 0.0140061
46.24 0.0181893
46.28 0.0122343
46.32 0.0323164
46.36 0.0179222
46.4 0.0119001
46.44 0.00708522
46.48 0.00377434
46.52 0.0112115
46.56 0.0265432
46.6 0.0112653
46.64 0.00511537
46.68 0.0255756
46.72 0.0252189
46.76 0.0242578
46.8 0.0301342
46.84 0.031405
46.88 0.00592747
46.92 0.00790659
46.96 -0.00168959
47 0.0301099
47.04 0.0210774
47.08 0.00335757
47.12 0.0118103
47.16 -0.00133345
47.2 -0.00218732
47.24 -0.0110402
47.28 -0.00169507
47.32 0.00946002
47.36 -0.00217552
47.4 -0.00331962
47.44 0.0224078
47.48 0.0126685
47.52 -0.0100454
47.56 0.0203598
47.6 0.0227092
47.64 0.00688858
47.68 0.00229984
47.72 -0.00667852
47.76 -0.0150218
47.8 0.000710237
47.84 0.0045797
47.88 -0.00152839
47.92 -0.00519156
47.96 0.00317363
48 -0.0142868
48.04 0.00131297
48.08 -0.00471355
48.12 0.0120863
48.16 0.0110529
48.2 0.00794483
48.24 0.00793858
48.28 -0.0172959
48.32 0.000492917
48.36 -0.00383037
48.4 -0.0103295
48.44 -0.00443424
48.48 0.00358609
48.52 -0.00414429
48.56 -0.00132437
48.6 0.00346335
48.64 -0.00292233
48.68 -0.00976676
48.72 0.00977018
48.76 -0.00537618
48.8 -0.00341063
48.84 0.00181135
48.88 0.00997008
48.92 0.0096377
48.96 -0.00511679
49 -0.000733925
49.04 0.00862208
49.08 -0.00954901
49.12 0.00135863
49.16 -0.00745267
49.2 0.000530721
49.24 -0.0130438
49.28 -0.00302361
49.32 0.00835599
49.36 -0.00899743
49.4 -0.0069167
49.44 0.0199459
49.48 0.00430504
49.52 -0.00302464
49.56 -0.00308306
49.6 -0.0137231
49.64 -0.0016249
49.68 -0.0161306
49.72 -0.017211
49.76 0.00839479
49.8 -0.00507324
49.84 -0.00446947
49.88 0.00115707
49.92 -0.00375102
49.96 -0.00295581
50 -0.00409644
50.04 0.0128683
50.08 0.00636339
50.12 0.0126405
50.16 0.00723894
50.2 -0.00296183
50.24 0.00218341
50.28 -0.00773436
50.32 -0.00156064
50.36 0.00444868
50.4 -0.00930386
50.44 0.00721952
50.48 -0.00307155
50.52 0.0175005
50.56 -0.00900977
50.6 -0.00569942
50.64 -0.00101257
50.68 -0.0036416
50.72 -0.00302069
50.76 -0.0121778
50.8 -0.0152995
50.84 0.00915446
50.88 -0.000897872
50.92 0.0171734
50.96 0.0166228
51 0.014932
51.04 0.0235235
51.08 0.01571
51.12 0.0418947
51.16 0.0485758
51.2 0.072545
51.24 0.104949
51.28 0.117976
51.32 0.125546
51.36 0.133237
51.4 0.095696
51.44 0.063122
51.48 0.0408151
51.52 0.0509773
51.56 0.0276294
51.6 0.0254608
51.64 0.022344
51.68 0.016621
51.72 0.00807751
51.76 0.00628751
51.8 0.0210487
51.84 0.0162425
51.88 0.0172395
51.92 0.017655
51.96 0.0194827
52 -0.000189066
52.04 0.00832761
52.08 0.00486998
52.12 0.00658851
52.16 0.0082855
52.2 0.00593646
52.24 -0.0111052
52.28 -0.0143583
52.32 -0.00103168
52.36 0.0145178
52.4 0.00513104
52.44 -0.00991548
52.48 0.0147647
52.52 -0.00402906
52.56 -0.00284823
52.6 -0.00550359
52.64 0.00372898
52.68 -0.00326714
52.72 0.0123288
52.76 0.00418825
52.8 0.00442271
52.84 0.010676
52.88 0.0123969
52.92 0.00111492
52.96 -0.000851719
53 0.00137092
53.04 0.0121507
53.08 -0.0122457
53.12 0.00624062
53.16 -0.000696848
53.2 0.0100507
53.24 0.00555443
53.28 0.0163809
53.32 0.0107594
53.36 0.00305709
53.4 0.00517109
53.44 -0.00211691
53.48 0.0115983
53.52 0.00189186
53.56 0.0096163
53.6 0.00308379
53.64 0.0119465
53.68 0.0139349
53.72 0.00418855
53.76 0.00538272
53.8 0.0076978
53.84 0.00821693
53.88 0.00838244
53.92 0.0138654
53.96 0.0119545
54 -0.00252666
54.04 0.00379792
54.08 -0.016039
54.12 0.0163591
54.16 -0.0143761
54.2 -0.0108993
54.24 -0.00527204
54.28 -0.0117872
54.32 -0.00661104
54.36 -0.00229474
54.4 -0.0020458
54.44 0.0072539
54.48 0.00102114
54.52 0.0033782
54.56 -0.00391911
54.6 -0.00172133
54.64 0.0137762
54.68 -0.0127265
54.72 -0.000272804
54.76 0.00293937
54.8 -0.00334919
54.84 -0.0134752
54.88 -0.00433382
54.92 -0.00486607
54.96 0.000181446
55 -0.00528214
55.04 0.000504089
55.08 -0.00846349
55.12 0.00522644
55.16 -0.00551713
55.2 -0.00544153
55.24 -0.00341441
55.28 0.00751463
55.32 -0.0123575
55.36 -0.00760586
55.4 0.00632455
55.44 -0.0017455
55.48 0.00555802
55.52 0.0149285
55.56 0.00537966
55.6 0.00226984
55.64 -0.000910778
55.68 0.00473492
55.72 0.00142932
55.76 0.0130711
55.8 -0.00677385
55.84 0.00929108
55.88 0.00448476
55.92 -0.0042032
55.96 0.0144692
56 0.00821023
56.04 -0.00430567
56.08 -0.00755647
56.12 0.0323711
56.16 -0.00519594
56.2 0.00164244
56.24 -0.00221543
56.28 -0.00280274
56.32 0.0121924
56.36 0.00288917
56.4 -0.0110539
56.44 -0.000320455
56.48 0.0132318
56.52 -0.0158801
56.56 0.0125427
56.6 -0.00255996
56.64 0.00106749
56.68 -0.00212044
56.72 0.0144664
56.76 0.0165871
56.8 0.0167151
56.84 0.00528869
56.88 0.00882887
56.92 -0.00111007
56.96 0.0181093
57 0.00729964
57.04 0.00556182
57.08 0.0207281
57.12 0.0170515
57.16 0.0223524
57.2 0.0269958
57.24 0.0164806
57.28 0.028519
57.32 0.0283147
57.36 0.0303513
57.4 0.0196959
57.44 0.0148352
57.48 0.027842
57.52 0.0070265
57.56 0.00873509
57.6 0.0221184
57.64 0.0230604
57.68 0.0268917
57.72 0.0115065
57.76 0.0131361
57.8 0.0102573
57.84 0.012498
57.88 0.0255991
57.92 0.0182359
57.96 0.0246301
58 0.0396056
58.04 0.0235369
58.08 0.0170067
58.12 0.00684884
58.16 -0.00599553
58.2 -0.00341931
58.24 0.00577029
58.28 0.00204288
58.32 -0.000207999
58.36 0.00851072
58.4 -0.0132109
58.44 -0.00307637
58.48 -0.00123836
58.52 0.00777035
58.56 0.0142146
58.6 0.00602781
58.64 0.001342
58.68 -0.0132106
58.72 0.00194863
58.76 0.00388535
58.8 -0.009489
58.84 0.00195311
58.88 0.0132326
58.92 0.0108029
58.96 0.0025793
59 0.0224348
59.04 0.00986948
59.08 -0.00245496
59.12 0.00532946
59.16 -0.00866855
59.2 0.0200644
59.24 -0.00324609
59.28 -0.00409028
59.32 0.000263029
59.36 -0.00964122
59.4 0.00388088
59.44 0.0123354
59.48 0.0105504
59.52 0.0140558
59.56 0.0256336
59.6 0.00702319
59.64 0.0137014
59.68 0.0224733
59.72 0.0321718
59.76 0.036179
59.8 0.00834769
59.84 -0.00149526
59.88 0.016334
59.92 -0.00775166
59.96 -0.00668103
60 0.0227903
60.04 -0.0047891
60.08 -0.000793084
60.12 0.00032892
60.16 -0.00800637
60.2 0.000106652
60.24 3.98955e-05
60.28 -0.00218408
60.32 0.0110512
60.36 0.0300772
60.4 0.00130022
60.44 -0.0122847
60.48 0.0105908
60.52 0.00989235
60.56 0.00228143
60.6 -0.00413504
60.64 -0.00589709
60.68 0.0247103
60.72 0.0107442
60.76 0.0212674
60.8 0.00434054
60.84 0.0266718
60.88 0.0189375
60.92 0.0085789
60.96 0.0205392
61 0.0409444
61.04 0.00783623
61.08 0.0111742
61.12 0.00572677
61.16 0.00902592
61.2 0.0156394
61.24 0.0194638
61.28 0.024479
61.32 0.00140624
61.36 -0.00698628
61.4 -0.00543989
61.44 0.00881447
61.48 -0.00264764
61.52 -0.0104681
61.56 0.00904677
61.6 0.0109064
61.64 0.00513443
61.68 0.0100922
61.72 0.0165515
61.76 0.0157066
61.8 0.0241265
61.84 0.0145501
61.88 0.0337203
61.92 0.0470483
61.96 0.0393315
62 0.0629693
62.04 0.0891388
62.08 0.109413
62.12 0.111291
62.16 0.178455
62.2 0.234635
62.24 0.448839
62.28 0.812946
62.32 1.20355
62.36 1.3903
62.4 1.27848
62.44 1.15309
62.48 0.904527
62.52 0.719185
62.56 0.639956
62.6 0.520912
62.64 0.450422
62.68 0.305931
62.72 0.242649
62.76 0.170086
62.8 0.141134
62.84 0.0875561
62.88 0.046923
62.92 0.0239381
62.96 0.0304112
63 0.0135437
63.04 0.0102789
63.08 0.0122389
63.12 0.0158387
63.16 0.039935
63.2 0.00865029
63.24 0.00842658
63.28 -0.00136771
63.32 0.01712
63.36 0.0216159
63.4 0.0267526
63.44 0.00541469
63.48 0.0124711
63.52 0.010934
63.56 0.027726
63.6 0.00232605
63.64 0.025499
63.68 0.0104598
63.72 0.0145238
63.76 0.0072651
63.8 0.0134897
63.84 0.015611
63.88 0.0096777
63.92 0.00940606
63.96 0.00361631
64 0.0262094
64.04 0.0109932
64.08 0.0273365
64.12 0.0112906
64.16 -0.00300052
64.2 -0.0129261
64.24 0.00574854
64.28 0.00181651
64.32 0.00427537
64.36 0.00336425
64.4 -0.00963874
64.44 0.0199958
64.48 0.000965721
64.52 -0.0104525
64.56 0.00593514
64.6 -0.00550396
64.64 -0.00614883
64.68 0.00108292
64.72 0.0087528
64.76 0.0191776
64.8 0.0110445
64.84 0.0155346
64.88 0.0136964
64.92 0.0126711
64.96 0.00630052
65 0.0076708
65.04 0.0165753
65.08 0.000657924
65.12 0.00222584
65.16 -0.000828383
65.2 0.00851021
65.24 0.00677749
65.28 -0.00736174
65.32 0.00498423
65.36 0.00341649
65.4 -0.0150474
65.44 -0.00267752
65.48 0.00673551
65.52 0.00643726
65.56 -0.000111754
65.6 -0.00651796
65.64 -0.00375465
65.68 0.00686796
65.72 0.00348036
65.76 -0.0106029
65.8 -0.0069462
65.84 0.00652983
65.88 -0.00403671
65.92 0.00728155
65.96 0.00516562
66 0.0165742
66.04 0.00734208
66.08 -0.000518129
66.12 0.0014149
66.16 0.00788623
66.2 0.000856454
66.24 0.00152237
66.28 0.00716058
66.32 0.00694086
66.36 -0.0132878
66.4 0.0185935
66.44 -0.00868904
66.48 0.0130428
66.52 -0.00332916
66.56 -0.000384112
66.6 -0.00450205
66.64 0.00665948
66.68 0.0105149
66.72 0.00738533
66.76 0.0186044
66.8 0.00515132
66.84 0.00117205
66.88 0.00775517
66.92 0.00210686
66.96 0.0234329
67 0.00593742
67.04 0.0115898
67.08 0.00579139
67.12 0.00634839
67.16 -3.2391e-05
67.2 0.00518203
67.24 -0.015185
67.28 -0.00656183
67.32 0.0117426
67.36 0.0192199
67.4 0.0252297
67.44 0.0192337
67.48 0.0501969
67.52 0.119107
67.56 0.101216
67.6 0.062456
67.64 0.0473297
67.68 0.0286851
67.72 0.0347958
67.76 0.0422709
67.8 0.0741871
67.84 0.0743839
67.88 0.0689896
67.92 0.0656222
67.96 0.0576308
68 0.0454789
68.04 0.0263532
68.08 0.0195872
68.12 0.026655
68.16 0.0225023
68.2 0.0235637
68.24 0.00791368
68.28 0.0160398
68.32 0.00822042
68.36 0.01818
68.4 0.0224277
68.44 0.0186261
68.48 0.014781
68.52 0.0133355
68.56 0.00798783
68.6 -0.00534176
68.64 0.022606
68.68 0.0102167
68.72 0.0104541
68.76 -0.000952287
68.8 0.0140948
68.84 0.0231491
68.88 0.034828
68.92 0.0245504
68.96 0.0233352
69 0.00649988
69.04 0.0203861
69.08 0.0264919
69.12 0.027357
69.16 0.0212738
69.2 0.00998299
69.24 0.00286893
69.28 0.00172107
69.32 0.0110958
69.36 0.0196042
69.4 0.0136761
69.44 0.0127146
69.48 0.0110662
69.52 0.0213383
69.56 0.0253926
69.6 0.046206
69.64 0.0303203
69.68 0.0163145
69.72 0.00891179
69.76 -0.00718433
69.8 -0.0049008
69.84 0.00403804
69.88 0.0140963
69.92 0.00321273
69.96 0.00156534
70 -0.00181805
70.04 0.0106652
70.08 0.000374592
70.12 0.000721156
70.16 0.00187181
70.2 0.00748731
70.24 0.000207179
70.28 -0.00217362
70.32 0.00271244
70.36 -0.0026506
70.4 -0.00181919
70.44 0.00129885
70.48 -0.0015904
70.52 0.00215524
70.56 0.00939088
70.6 -0.00143946
70.64 0.0024072
70.68 -0.000563611
70.72 -0.00224338
70.76 0.0106005
70.8 0.00126704
70.84 0.00132578
70.88 0.0117466
70.92 -0.00163762
70.96 0.0126904
71 0.0178131
71.04 -0.00215614
71.08 0.0244012
71.12 0.00273102
71.16 -0.00178738
71.2 0.019342
71.24 0.0273243
71.28 0.0270515
71.32 0.048058
71.36 0.0185451
71.4 0.0162557
71.44 0.00781891
71.48 0.0145662
71.52 -0.00547093
71.56 0.0117681
71.6 -0.000515826
71.64 0.0050153
71.68 -0.00149979
71.72 -0.0139137
71.76 -0.00671427
71.8 -0.00229385
71.84 -0.00831883
71.845 -0.0160525