File: data/xrd/xy/2018-07-06T15_40_16.425303+00_00_LBL.xy
'Id: "" Comment: "Integrate frame perovskite1_02_001.gfrmwith cursor Wedge Cursor #3" Operator: "UC Berkeley" Anode: "Co" Scantype: "TwoTheta" TimePerStep: "300"
13.525 -0.0327044
13.57 -0.029151
13.615 0.0632843
13.66 0.0284446
13.705 0.0328885
13.75 0.00872572
13.795 0.0445049
13.84 0.0591492
13.885 0.0193656
13.93 0.0816204
13.975 0.0173841
14.02 0.118669
14.065 0.155296
14.11 0.019114
14.155 0.0802436
14.2 0.103329
14.245 0.0322534
14.29 0.0529123
14.335 0.0978247
14.38 -0.00647086
14.425 0.0479933
14.47 0.0755109
14.515 0.088034
14.56 0.127581
14.605 0.0517081
14.65 0.101096
14.695 0.0789407
14.74 0.17737
14.785 0.05323
14.83 0.111892
14.875 0.0981749
14.92 0.0539571
14.965 0.074671
15.01 0.12507
15.055 0.0964334
15.1 0.075468
15.145 0.103603
15.19 0.0867373
15.235 0.153358
15.28 0.0641771
15.325 0.0965555
15.37 0.135474
15.415 0.120887
15.46 0.133389
15.505 0.0778053
15.55 0.0788232
15.595 0.0603121
15.64 0.124559
15.685 0.0801183
15.73 0.110727
15.775 0.0925448
15.82 0.0362972
15.865 0.100489
15.91 0.156319
15.955 0.0515018
16 0.0662747
16.045 0.133193
16.09 0.0866233
16.135 0.0404149
16.18 0.0867922
16.225 0.0983814
16.27 0.0537442
16.315 0.164093
16.36 0.0979418
16.405 0.0464211
16.45 0.0974957
16.495 0.0907165
16.54 0.126394
16.585 0.139861
16.63 0.0710945
16.675 0.0390224
16.72 0.0560577
16.765 0.104364
16.81 0.0552599
16.855 0.0860161
16.9 0.0993907
16.945 0.106352
16.99 0.0325843
17.035 0.0633099
17.08 0.0742198
17.125 0.0839992
17.17 0.0465481
17.215 0.0926284
17.26 0.0572979
17.305 0.0403288
17.35 0.104727
17.395 0.0754163
17.44 0.0546234
17.485 0.0615414
17.53 0.0524329
17.575 0.0219539
17.62 0.0828449
17.665 0.0771312
17.71 0.0459372
17.755 0.108679
17.8 0.0392086
17.845 0.125261
17.89 0.0201506
17.935 0.0225844
17.98 0.0576511
18.025 0.0341048
18.07 0.103664
18.115 0.0854461
18.16 0.0510862
18.205 0.0788684
18.25 0.114261
18.295 0.028252
18.34 -0.0104707
18.385 0.0700188
18.43 0.129777
18.475 0.000495775
18.52 0.0645257
18.565 0.0751422
18.61 0.0916362
18.655 0.114507
18.7 0.0883061
18.745 0.0596518
18.79 0.0688599
18.835 0.0512556
18.88 0.0883657
18.925 0.0687309
18.97 0.0723384
19.015 0.132064
19.06 0.124604
19.105 0.0734048
19.15 0.032885
19.195 0.0815938
19.24 0.0807353
19.285 0.0437225
19.33 0.105389
19.375 0.0176963
19.42 0.0853303
19.465 0.116279
19.51 0.0112652
19.555 0.102059
19.6 0.0728362
19.645 0.0766654
19.69 0.124854
19.735 0.0653823
19.78 0.0916098
19.825 0.074907
19.87 -0.00820882
19.915 0.0718433
19.96 0.0780948
20.005 0.0790761
20.05 0.0640952
20.095 0.0760703
20.14 0.0972135
20.185 0.0462133
20.23 0.0851239
20.275 0.059647
20.32 0.0354448
20.365 0.015779
20.41 0.0496511
20.455 0.0701673
20.5 0.0642296
20.545 0.0636092
20.59 0.0422008
20.635 0.0862426
20.68 0.0992168
20.725 0.0769658
20.77 0.0285903
20.815 0.0851298
20.86 0.027013
20.905 0.0481115
20.95 0.0620304
20.995 0.0445884
21.04 0.0582145
21.085 0.0733792
21.13 0.0438216
21.175 0.072637
21.22 0.0597969
21.265 0.0400822
21.31 0.0443249
21.355 0.0923299
21.4 0.140573
21.445 -0.00806703
21.49 0.0152628
21.535 0.0134542
21.58 0.053445
21.625 0.077552
21.67 0.00188548
21.715 0.0812632
21.76 0.09384
21.805 0.0359237
21.85 0.0614281
21.895 0.0142464
21.94 0.0332701
21.985 0.0930629
22.03 0.116965
22.075 0.0657013
22.12 0.0452407
22.165 0.0381791
22.21 0.0611867
22.255 0.0781086
22.3 0.0942766
22.345 -0.00451576
22.39 0.0339745
22.435 0.027573
22.48 0.0285189
22.525 0.0545462
22.57 0.0425294
22.615 0.0695217
22.66 0.0335937
22.705 0.0445886
22.75 0.101459
22.795 0.0568087
22.84 -0.00214963
22.885 0.0159359
22.93 0.0646036
22.975 0.0615516
23.02 0.0707374
23.065 0.0279604
23.11 0.0474903
23.155 0.0122204
23.2 0.0895674
23.245 0.0294227
23.29 0.0305341
23.335 0.0676126
23.38 -0.00190338
23.425 0.0229422
23.47 0.060308
23.515 0.133931
23.56 -0.0087491
23.605 0.0516641
23.65 0.0484138
23.695 0.101477
23.74 0.11685
23.785 0.0448918
23.83 -0.00823846
23.875 0.056802
23.92 0.0408863
23.965 -0.0116384
24.01 0.0558592
24.055 0.0465554
24.1 0.0629651
24.145 0.0574022
24.19 0.0681184
24.235 0.0215348
24.28 0.100055
24.325 0.0747821
24.37 0.0218723
24.415 0.0392706
24.46 0.0749524
24.505 0.0547965
24.55 0.0730591
24.595 0.0346194
24.64 0.0270258
24.685 0.0793222
24.73 0.076546
24.775 0.0295785
24.82 0.0895912
24.865 0.0647332
24.91 0.0435068
24.955 0.0751269
25 0.0642941
25.045 0.0733069
25.09 0.0714689
25.135 0.109715
25.18 0.0645549
25.225 0.119591
25.27 0.145112
25.315 0.0640531
25.36 0.14828
25.405 0.138048
25.45 0.0857485
25.495 0.140391
25.54 0.0932161
25.585 0.147739
25.63 0.0960856
25.675 0.136995
25.72 0.152194
25.765 0.196416
25.81 0.223159
25.855 0.308187
25.9 0.267505
25.945 0.402008
25.99 0.516169
26.035 0.587598
26.08 0.863046
26.125 1.13167
26.17 1.34664
26.215 1.50317
26.26 1.57504
26.305 1.53655
26.35 1.29192
26.395 0.99104
26.44 0.767649
26.485 0.448375
26.53 0.408393
26.575 0.300269
26.62 0.233853
26.665 0.153198
26.71 0.109063
26.755 0.113503
26.8 0.100457
26.845 0.120716
26.89 0.0524478
26.935 0.0659301
26.98 0.0883256
27.025 0.0765594
27.07 0.0808205
27.115 0.0486609
27.16 0.0544309
27.205 0.0228981
27.25 0.0734628
27.295 0.0387742
27.34 0.0381907
27.385 0.0444522
27.43 0.0551673
27.475 0.0777519
27.52 0.0238093
27.565 0.0619514
27.61 0.0173614
27.655 0.0471939
27.7 0.079474
27.745 0.0107695
27.79 0.0199545
27.835 0.0682159
27.88 0.0172405
27.925 0.0383065
27.97 0.0539404
28.015 0.0785491
28.06 0.0306835
28.105 -0.00103985
28.15 0.060881
28.195 0.0876471
28.24 0.0456306
28.285 0.04249
28.33 0.0619124
28.375 0.0116357
28.42 0.0233812
28.465 0.0507552
28.51 0.0496104
28.555 0.0267061
28.6 0.0529448
28.645 0.0619016
28.69 0.0472927
28.735 0.0311215
28.78 0.0677571
28.825 0.0767216
28.87 0.0531816
28.915 0.0859013
28.96 0.0698786
29.005 0.103985
29.05 0.0682548
29.095 0.0212549
29.14 0.0416139
29.185 0.0612358
29.23 0.0603059
29.275 0.0418163
29.32 -0.0161033
29.365 0.0557473
29.41 0.0168819
29.455 0.0374939
29.5 0.00860095
29.545 0.0129031
29.59 0.0432927
29.635 0.11426
29.68 0.0184724
29.725 0.0691106
29.77 0.0787476
29.815 -0.019445
29.86 0.027023
29.905 -0.00349737
29.95 0.0698096
29.995 0.072433
30.04 0.0448168
30.085 0.0783199
30.13 0.0904314
30.175 0.227173
30.22 0.268086
30.265 0.333737
30.31 0.260404
30.355 0.219364
30.4 0.117736
30.445 0.0596805
30.49 0.0318849
30.535 0.0370383
30.58 0.0378824
30.625 0.0506478
30.67 0.0290354
30.715 0.0497339
30.76 0.0650933
30.805 0.016823
30.85 0.0560512
30.895 0.00753806
30.94 0.0194122
30.985 0.0551029
31.03 0.0204849
31.075 0.0400621
31.12 0.0502845
31.165 0.0381368
31.21 0.0264667
31.255 0.0117877
31.3 0.0367925
31.345 0.00867347
31.39 0.009667
31.435 0.0241877
31.48 0.00486644
31.525 0.0406045
31.57 -0.00382552
31.615 0.0387237
31.66 0.0414559
31.705 0.0325608
31.75 0.00947822
31.795 0.0713478
31.84 0.0434586
31.885 0.0528557
31.93 -0.00850884
31.975 0.0451197
32.02 0.0367488
32.065 0.0669803
32.11 0.00263016
32.155 0.0286325
32.2 2.73854e-05
32.245 0.00722169
32.29 0.0387822
32.335 0.0291612
32.38 0.0564467
32.425 0.0322035
32.47 0.0539818
32.515 0.0607412
32.56 0.0473464
32.605 0.0448536
32.65 0.0502049
32.695 0.0624614
32.74 0.0349147
32.785 0.0184769
32.83 0.0213478
32.875 0.0125502
32.92 0.0133307
32.965 0.0441938
33.01 0.0194544
33.055 0.0326536
33.1 0.0494225
33.145 0.0100324
33.19 0.048974
33.235 0.0326405
33.28 0.0194183
33.325 0.0201675
33.37 0.0163884
33.415 -0.00345551
33.46 0.0381691
33.505 -0.00690655
33.55 0.012081
33.595 0.0329073
33.64 0.0173856
33.685 0.0168169
33.73 0.0258241
33.775 0.0324495
33.82 0.00673006
33.865 0.0102877
33.91 0.0515618
33.955 0.0089778
34 0.0151663
34.045 0.00666388
34.09 -0.00819294
34.135 0.00941111
34.18 0.0412921
34.225 0.0151778
34.27 0.0158458
34.315 0.0191312
34.36 0.00892179
34.405 0.0182279
34.45 0.0112611
34.495 0.0234238
34.54 0.0223089
34.585 0.00927365
34.63 0.0174487
34.675 0.0277884
34.72 0.0463302
34.765 0.0651087
34.81 0.119023
34.855 0.163444
34.9 0.213273
34.945 0.228805
34.99 0.23101
35.035 0.254085
35.08 0.182858
35.125 0.132748
35.17 0.105351
35.215 0.070085
35.26 0.0318453
35.305 -0.000811972
35.35 -0.0104556
35.395 0.00822848
35.44 0.0298107
35.485 -0.0152046
35.53 -0.00534937
35.575 0.0266795
35.62 0.0277283
35.665 0.001212
35.71 0.0123747
35.755 -0.00353102
35.8 0.00718942
35.845 0.00340148
35.89 -0.00169939
35.935 0.00568093
35.98 -0.00886006
36.025 -0.0149463
36.07 0.00892831
36.115 0.0419857
36.16 -0.003987
36.205 -0.0101912
36.25 0.0117409
36.295 0.0506823
36.34 0.0606007
36.385 0.100733
36.43 0.15
36.475 0.198271
36.52 0.169311
36.565 0.140577
36.61 0.127776
36.655 0.125276
36.7 0.0669923
36.745 0.00126588
36.79 0.0183024
36.835 0.0203493
36.88 0.00730857
36.925 -0.00346867
36.97 0.00802748
37.015 0.0125653
37.06 -0.00426943
37.105 0.00709024
37.15 -0.0131499
37.195 0.0227281
37.24 0.00814076
37.285 0.00108145
37.33 0.016589
37.375 0.0143053
37.42 0.0396446
37.465 0.0213165
37.51 0.0504225
37.555 0.0711001
37.6 0.0898529
37.645 0.0818722
37.69 0.0648212
37.735 0.0657811
37.78 0.0719363
37.825 0.0221658
37.87 0.036929
37.915 0.00408682
37.96 0.0249801
38.005 0.00676202
38.05 0.0378363
38.095 0.0152178
38.14 -0.0128669
38.185 0.00350548
38.23 -0.0120195
38.275 -0.000968418
38.32 -0.00974736
38.365 0.00489258
38.41 0.0235801
38.455 0.00808593
38.5 0.00809874
38.545 0.0263519
38.59 0.0343555
38.635 0.039948
38.68 0.022557
38.725 0.0433049
38.77 0.0450777
38.815 0.0683286
38.86 0.0360172
38.905 0.0655366
38.95 0.0430198
38.995 0.0315384
39.04 0.0502781
39.085 0.0775565
39.13 0.106995
39.175 0.0955845
39.22 0.128046
39.265 0.128183
39.31 0.178099
39.355 0.204984
39.4 0.24118
39.445 0.220125
39.49 0.22409
39.535 0.262167
39.58 0.269742
39.625 0.254113
39.67 0.316676
39.715 0.2884
39.76 0.26901
39.805 0.195601
39.85 0.232824
39.895 0.198079
39.94 0.19526
39.985 0.164594
40.03 0.157178
40.075 0.12975
40.12 0.118643
40.165 0.0927098
40.21 0.0903968
40.255 0.042627
40.3 0.0440473
40.345 0.0494509
40.39 0.0529057
40.435 0.028215
40.48 0.00390974
40.525 0.00730886
40.57 0.0156432
40.615 0.0177956
40.66 0.0177659
40.705 0.0207781
40.75 0.0570156
40.795 0.0292073
40.84 0.00865975
40.885 0.0460975
40.93 0.0480365
40.975 0.0130668
41.02 0.00980551
41.065 0.0258067
41.11 0.00515833
41.155 -0.00988084
41.2 0.0206343
41.245 0.0315144
41.29 -0.0198267
41.335 -0.00175512
41.38 0.0499895
41.425 -0.00873698
41.47 0.0303259
41.515 0.0304209
41.56 0.0545879
41.605 0.048838
41.65 0.0358992
41.695 0.0305813
41.74 0.0571186
41.785 0.067807
41.83 0.0304262
41.875 0.0109649
41.92 0.0140986
41.965 0.0269822
42.01 0.0184462
42.055 -0.00477287
42.1 0.0249036
42.145 0.0346564
42.19 0.0237788
42.235 0.0290273
42.28 0.0245727
42.325 0.0217338
42.37 0.0470065
42.415 0.0320587
42.46 0.0272116
42.505 0.0279786
42.55 0.0352809
42.595 0.0326555
42.64 0.0357679
42.685 0.0266788
42.73 0.0317694
42.775 0.0155499
42.82 0.0422921
42.865 0.0248851
42.91 0.046797
42.955 -0.00189541
43 0.045831
43.045 0.0204145
43.09 -0.00147789
43.135 0.0105938
43.18 0.0236906
43.225 0.00974581
43.27 0.0374404
43.315 0.0322673
43.36 0.0190625
43.405 0.0223278
43.45 0.03125
43.495 0.00276052
43.54 0.0169046
43.585 0.0224332
43.63 0.0579621
43.675 0.0315896
43.72 0.0205413
43.765 0.00796245
43.81 0.0205434
43.855 0.0154029
43.9 0.0237936
43.945 0.0198096
43.99 -0.00141341
44.035 0.0167593
44.08 0.00228228
44.125 0.0376875
44.17 0.0221779
44.215 0.00638535
44.26 0.021028
44.305 0.0401157
44.35 0.00746198
44.395 0.0142356
44.44 0.0310658
44.485 0.00488154
44.53 0.00291093
44.575 0.0166122
44.62 0.0187853
44.665 0.0615298
44.71 0.0177646
44.755 0.0536015
44.8 0.0259054
44.845 0.0339748
44.89 0.0447561
44.935 0.0486535
44.98 0.0982878
45.025 0.105896
45.07 0.118153
45.115 0.0634829
45.16 0.0417452
45.205 0.0319483
45.25 0.0332562
45.295 0.00942455
45.34 0.00528313
45.385 0.0382648
45.43 0.0164017
45.475 0.00219945
45.52 -0.0105437
45.565 0.049285
45.61 0.0189548
45.655 0.0337096
45.7 0.0143786
45.745 0.0154772
45.79 0.00200417
45.835 0.0230069
45.88 -0.00896689
45.925 0.0347942
45.97 -0.0103268
46.015 0.0225246
46.06 0.0583508
46.105 0.0392485
46.15 0.0418952
46.195 0.0653018
46.24 0.0287901
46.285 0.0357557
46.33 0.0221595
46.375 0.0531672
46.42 0.0419351
46.465 0.0455541
46.51 0.0401523
46.555 0.0202803
46.6 0.0474494
46.645 0.0389543
46.69 0.0239641
46.735 0.0316694
46.78 0.0383468
46.825 0.0375455
46.87 0.00206254
46.915 0.008894
46.96 -0.00664071
47.005 0.0084755
47.05 0.0084711
47.095 0.00133195
47.14 0.00759836
47.185 0.00854518
47.23 0.00625332
47.275 0.0414162
47.32 -0.00312702
47.365 -0.00946882
47.41 0.0280117
47.455 -0.00383434
47.5 0.00857565
47.545 0.0399392
47.59 0.00416124
47.635 0.0203129
47.68 0.038092
47.725 0.0396911
47.77 0.0764306
47.815 0.0683367
47.86 0.113665
47.905 0.0992738
47.95 0.0966128
47.995 0.104133
48.04 0.0627525
48.085 0.066494
48.13 0.0613272
48.175 0.0521371
48.22 0.0418695
48.265 0.0329884
48.31 0.063353
48.355 0.0886276
48.4 0.123164
48.445 0.107798
48.49 0.0927569
48.535 0.0911329
48.58 0.0850102
48.625 0.0465269
48.67 0.012747
48.715 0.0179532
48.76 -0.00096683
48.805 0.0285627
48.85 0.011057
48.895 0.0255981
48.94 0.0201341
48.985 -0.00686847
49.03 0.0268301
49.075 0.00755376
49.12 0.0124738
49.165 0.0223353
49.21 -0.00572084
49.255 0.0411386
49.3 0.0583293
49.345 0.062807
49.39 0.0389327
49.435 0.0321419
49.48 0.0310096
49.525 0.00118983
49.57 0.0245145
49.615 -0.00384555
49.66 -0.0173467
49.705 0.002665
49.75 0.00668409
49.795 0.0337588
49.84 0.0146029
49.885 0.0159812
49.93 0.0162996
49.975 0.00964516
50.02 -0.0101294
50.065 0.00650334
50.11 -4.06891e-05
50.155 0.0184301
50.2 0.0209912
50.245 -0.00214396
50.29 0.0185063
50.335 0.0208721
50.38 0.0179665
50.425 0.0480658
50.47 0.0567901
50.515 0.057559
50.56 0.0882532
50.605 0.0688091
50.65 0.0496147
50.695 0.0544608
50.74 0.0295374
50.785 0.0159959
50.83 0.0176753
50.875 0.000452552
50.92 0.0123614
50.965 0.0232541
51.01 0.00182154
51.055 0.00610678
51.1 0.00720816
51.145 0.0128924
51.19 -0.00179371
51.235 -0.00385144
51.28 0.000396186
51.325 -0.00415856
51.37 0.0150502
51.415 -0.00328802
51.46 -0.00174496
51.505 0.0143224
51.55 -0.00348539
51.595 0.00415943
51.64 0.0150994
51.685 -0.00947327
51.73 0.00303996
51.775 0.0153057
51.82 0.0157708
51.865 0.0313257
51.91 0.0123218
51.955 0.00549144
52 0.0340754
52.045 0.0815648
52.09 0.125404
52.135 0.195183
52.18 0.181852
52.225 0.200249
52.27 0.125619
52.315 0.0948307
52.36 0.0513481
52.405 0.0305298
52.45 0.0201199
52.495 0.0391437
52.54 0.0150949
52.585 0.0230933
52.63 0.0239993
52.675 0.0205958
52.72 0.0230867
52.765 0.0236197
52.81 0.0059105
52.855 0.0125466
52.9 0.0157918
52.945 0.00781127
52.99 0.00550513
53.035 0.0129406
53.08 -0.00509786
53.125 -0.00810602
53.17 0.0155792
53.215 -0.00348444
53.26 0.00565226
53.305 0.010268
53.35 0.0110945
53.395 -0.00125796
53.44 0.0112151
53.485 0.0176476
53.53 0.0260383
53.575 0.00716838
53.62 0.017295
53.665 -0.00748931
53.71 0.0162047
53.755 -0.00780361
53.8 0.0198135
53.845 0.00200458
53.89 0.0225104
53.935 0.0352695
53.98 0.0245635
54.025 0.0336333
54.07 0.0412491
54.115 0.0339892
54.16 0.0124104
54.205 0.0238465
54.25 0.0334771
54.295 0.0312295
54.34 0.0090259
54.385 0.0308905
54.43 0.000371087
54.475 0.0186095
54.52 0.00734032
54.565 -0.00506813
54.61 -0.00410479
54.655 -0.00874102
54.7 0.00188492
54.745 0.000630748
54.79 -0.00406406
54.835 -0.00768379
54.88 0.0166427
54.925 -0.00205173
54.97 0.0233294
55.015 0.023448
55.06 0.0135742
55.105 0.0403757
55.15 0.0399744
55.195 0.0474496
55.24 0.05027
55.285 0.0609983
55.33 0.0405056
55.375 0.0831015
55.42 0.0829988
55.465 0.0542484
55.51 0.119887
55.555 0.105599
55.6 0.109963
55.645 0.0953124
55.69 0.105277
55.735 0.116316
55.78 0.0842551
55.825 0.0916871
55.87 0.0988656
55.915 0.0651593
55.96 0.0794086
56.005 0.0700154
56.05 0.0598375
56.095 0.0409289
56.14 0.0550212
56.185 0.0442213
56.23 0.0176889
56.275 0.0191604
56.32 0.0240641
56.365 0.0377819
56.41 0.0254415
56.455 -0.012728
56.5 0.0207619
56.545 0.0115602
56.59 0.017216
56.635 0.00046215
56.68 -0.000663359
56.725 0.0062036
56.77 0.0144881
56.815 0.0106519
56.86 0.0124989
56.905 0.00406666
56.95 0.0187623
56.995 -0.0115207
57.04 0.022129
57.085 0.0295079
57.13 0.00852888
57.175 0.0224745
57.22 0.0478702
57.265 0.0444455
57.31 0.0577737
57.355 0.0705968
57.4 0.108189
57.445 0.125871
57.49 0.115485
57.535 0.13859
57.58 0.099217
57.625 0.0836386
57.67 0.0659986
57.715 0.0546833
57.76 0.0155373
57.805 0.0230342
57.85 0.0349627
57.895 0.0249996
57.94 0.0199961
57.985 0.039218
58.03 0.0617171
58.075 0.0553083
58.12 0.098452
58.165 0.0932334
58.21 0.110318
58.255 0.104919
58.3 0.0957573
58.345 0.0759621
58.39 0.0825583
58.435 0.0393619
58.48 0.0128184
58.525 0.0224617
58.57 0.00351229
58.615 0.0184997
58.66 0.0196643
58.705 0.027036
58.75 0.00890996
58.795 0.015962
58.84 0.010963
58.885 0.0171514
58.93 0.0193528
58.975 0.0311209
59.02 0.0171765
59.065 0.00569935
59.11 0.0233917
59.155 -0.00451128
59.2 0.0344851
59.245 0.0291709
59.29 0.0166657
59.335 0.00391015
59.38 0.0245729
59.425 0.0124826
59.47 0.0269366
59.515 0.00294683
59.56 0.0316021
59.605 0.0169723
59.65 0.0353187
59.695 0.0262411
59.74 0.019917
59.785 0.00847014
59.83 0.0183886
59.875 0.0292242
59.92 0.0200533
59.965 0.0116771
60.01 0.0198036
60.055 0.0359715
60.1 0.010179
60.145 0.011502
60.19 0.00529524
60.235 0.00217391
60.28 0.0046624
60.325 0.00681447
60.37 0.0251419
60.415 0.00826426
60.46 0.0135794
60.505 0.00727507
60.55 0.00139899
60.595 -0.00560163
60.64 0.0290392
60.685 0.00323366
60.73 0.0304478
60.775 0.003423
60.82 0.00773342
60.865 0.008055
60.91 0.0118578
60.955 -0.00448407
61 0.0431349
61.045 0.011723
61.09 0.0287154
61.135 0.0179283
61.18 0.0362881
61.225 0.0204191
61.27 0.0370295
61.315 0.0107169
61.36 0.0208794
61.405 0.0040023
61.45 0.0123276
61.495 0.0200856
61.54 0.0198329
61.585 0.0361804
61.63 0.00819353
61.675 0.0183693
61.72 0.0435727
61.765 0.0194097
61.81 0.0278054
61.855 0.013389
61.9 0.00377731
61.945 0.0336288
61.99 0.0574269
62.035 0.0351379
62.08 0.0624765
62.125 0.0736769
62.17 0.114506
62.215 0.122067
62.26 0.127114
62.305 0.0706895
62.35 0.0856631
62.395 0.0912154
62.44 0.0509595
62.485 0.0562803
62.53 0.0408837
62.575 0.0496869
62.62 0.0405751
62.665 0.0752094
62.71 0.0744329
62.755 0.0458581
62.8 0.0819015
62.845 0.0510576
62.89 0.0753947
62.935 0.0840939
62.98 0.0227771
63.025 0.0633937
63.07 0.0449193
63.115 0.0345896
63.16 0.0473905
63.205 0.028456
63.25 0.0127848
63.295 0.0311365
63.34 0.0120179
63.385 0.0210495
63.43 -0.00489414
63.475 0.00694256
63.52 0.00296807
63.565 0.0061094
63.61 0.0224186
63.655 0.0407756
63.7 0.00471598
63.745 -0.0145112
63.79 0.00410912
63.835 -0.00174024
63.88 0.0120028
63.925 0.0145802
63.97 0.0240691
64.015 -0.00306073
64.06 -0.000422289
64.105 0.00513765
64.15 -0.00097275
64.195 0.00497337
64.24 0.0107999
64.285 0.00448
64.33 0.0169798
64.375 0.011134
64.42 0.0150449
64.465 0.0159949
64.51 -0.00348986
64.555 0.0098111
64.6 0.0235659
64.645 0.0165643
64.69 -0.00388123
64.735 0.0253982
64.78 0.0126286
64.825 0.0374974
64.87 0.00791132
64.915 -0.00579084
64.96 -0.00145403
65.005 0.0236228
65.05 -0.00216647
65.095 0.00559823
65.14 0.048841
65.185 0.0324549
65.23 0.0131008
65.275 0.0190691
65.32 0.0307643
65.365 0.0414459
65.41 0.0354331
65.455 0.0829635
65.5 0.0641102
65.545 0.0390214
65.59 0.0455312
65.635 0.031348
65.68 0.0307596
65.725 0.0280743
65.77 -0.000177403
65.815 -0.0121395
65.86 0.0183612
65.905 0.0157027
65.95 0.0269808
65.995 0.0175042
66.04 0.0172894
66.085 -0.000906914
66.13 0.00449677
66.175 0.0096712
66.22 0.0195229
66.265 0.0335691
66.31 0.00391218
66.355 0.00449948
66.4 0.0331796
66.445 0.0084285
66.49 0.0119352
66.535 0.0135685
66.58 0.0225437
66.625 0.00956669
66.67 0.0105277
66.715 -0.00122716
66.76 0.0177643
66.805 0.0132778
66.85 0.0141572
66.895 0.00935689
66.94 0.0183598
66.985 0.00574452
67.03 -0.005292
67.075 0.0173435
67.12 0.0123422
67.165 0.022348
67.21 0.00427502
67.255 0.0238416
67.3 -0.00080376
67.345 0.012097
67.39 0.0198315
67.435 0.0285368
67.48 0.00126301
67.525 0.0103061
67.57 0.0278849
67.615 0.00737283
67.66 0.00420022
67.705 0.0219149
67.75 0.0187887
67.795 0.0238738
67.84 0.0049505
67.885 0.0185912
67.93 0.0112716
67.975 0.0039884
68.02 0.0137175
68.065 0.0146828
68.11 0.0316472
68.155 0.0431124
68.2 0.00829624
68.245 0.0388335
68.29 0.055425
68.335 0.0182864
68.38 0.0187214
68.425 0.0204048
68.47 0.0358592
68.515 0.0452098
68.56 0.0404466
68.605 0.0154767
68.65 0.0283688
68.695 0.0222199
68.74 0.0497337
68.785 0.0380988
68.83 0.0468878
68.875 0.0403324
68.92 0.0440237
68.965 0.0348237
69.01 0.0284416
69.055 0.00687385
69.1 0.0268561
69.145 0.025705
69.19 0.0230111
69.235 0.0217478
69.28 0.0238638
69.325 0.0194504
69.37 0.0175706
69.415 0.0138068
69.46 0.0175576
69.505 0.00334758
69.55 0.0219422
69.595 0.0229702
69.64 0.0199954
69.685 0.0172828
69.73 -0.0136686
69.775 0.0157295
69.82 0.0168888
69.865 0.00794253
69.91 -0.00397956
69.955 0.030509
70 0.0184013
70.045 0.00120754
70.09 0.0482621
70.135 0.0039451
70.18 0.0157987
70.225 0.0384459
70.27 0.00615354
70.315 0.00687793
70.36 0.010494
70.405 0.0137049
70.45 -0.00374051
70.495 0.0196317
70.54 0.0198593
70.585 -0.000951546
70.63 0.0209394
70.675 0.0226503
70.72 0.0129204
70.765 0.00612576
70.81 0.0190848
70.855 0.00320445
70.9 -0.00909543
70.945 0.0239522
70.99 0.0042515
71.035 0.00671225
71.08 -0.000812255
71.125 0.0119243
71.17 -0.00949189
71.215 0.0170474
71.26 0.025093
71.305 0.0013099
71.35 0.0147755
71.395 0.0252681
71.44 0.0360238
71.485 0.0153811
71.53 0.0518177
71.575 0.0597461
71.62 0.0775641
71.665 0.0773961
71.71 0.0511141
71.755 0.047567
71.8 0.0489455
71.845 0.0275755
71.89 0.0339765
71.935 0.00464279
71.98 0.0271852
72.025 0.0188745
72.07 0.00260299
72.115 0.000644758
72.16 0.0117394
72.205 0.000980908
72.25 0.00541589
72.295 -0.00684083
72.34 -0.00456148
72.385 0.0170435
72.43 0.0208711
72.475 0.00092846
72.52 0.00524051
72.565 0.00827417
72.61 0.0139361
72.655 0.0225984
72.7 0.0192302
72.745 -0.0124461
72.79 -0.00491706
72.835 0.0145849
72.88 0.0210105
72.925 0.00342575
72.97 0.0176091
73.015 0.0334166
73.06 0.0478086
73.105 0.0590493
73.15 0.0867837
73.195 0.0581316
73.24 0.0757002
73.285 0.0551972
73.33 0.0518774
73.375 0.0696214
73.42 0.0223115
73.465 0.0498892
73.51 0.0529453
73.555 0.0279226
73.6 0.0310561
73.645 0.0275096
73.69 0.0412585
73.735 0.0468687
73.78 0.0296604
73.825 0.0782075
73.87 0.0700989
73.915 0.0875999
73.96 0.0532402
74.005 0.0314372
74.05 0.0451249
74.095 0.0288011
74.14 0.0378582
74.185 0.0199172
74.23 0.0242545
74.275 -0.00327184
74.32 0.0201841
74.365 0.00246481
74.41 0.00114293
74.455 0.00580698
74.5 0.0257402
74.545 -0.00241019
74.59 -0.00876543
74.6 -0.013984