File: data/xrd/xy/2018-09-10T22_54_34.498665+00_00_LBL.xy
'Id: "" Comment: "Integrate frame Perovskite0_01_001.gfrmwith cursor Wedge Cursor #1" Operator: "UC Berkeley" Anode: "Co" Scantype: "TwoTheta" TimePerStep: "900"
14.97 -0.0164758
15.01 0.00204417
15.05 0.00214723
15.09 0.0083879
15.13 0.0146417
15.17 -0.000232134
15.21 0.0126448
15.25 0.0199379
15.29 0.0269248
15.33 0.0241146
15.37 0.00612314
15.41 0.023291
15.45 0.0291977
15.49 0.000501532
15.53 0.0182689
15.57 0.0202573
15.61 0.0120706
15.65 0.00786008
15.69 -0.00156575
15.73 0.0180749
15.77 0.0211562
15.81 0.0401688
15.85 0.0183332
15.89 0.0621669
15.93 0.0692531
15.97 0.116934
16.01 0.120952
16.05 0.194973
16.09 0.192966
16.13 0.205779
16.17 0.167121
16.21 0.121257
16.25 0.0742639
16.29 0.0611116
16.33 0.0448522
16.37 0.00987259
16.41 0.0039194
16.45 0.00757099
16.49 0.00801738
16.53 0.0186669
16.57 0.0146129
16.61 0.0119803
16.65 0.0172844
16.69 0.019244
16.73 -0.00383656
16.77 0.0167277
16.81 0.0164005
16.85 0.0100345
16.89 0.0212594
16.93 0.0144787
16.97 0.0167067
17.01 0.00791437
17.05 0.0136907
17.09 0.0259406
17.13 0.0144594
17.17 0.014439
17.21 0.0193456
17.25 0.0160103
17.29 0.0052363
17.33 0.0285566
17.37 -0.00535524
17.41 -0.0123404
17.45 -0.000616841
17.49 -0.0034307
17.53 0.00381304
17.57 0.0202304
17.61 0.0274074
17.65 0.0367966
17.69 0.0240951
17.73 0.00105818
17.77 0.00061825
17.81 0.0356191
17.85 0.0150644
17.89 0.00230538
17.93 0.0225397
17.97 0.0220834
18.01 0.00337527
18.05 0.0104489
18.09 0.019016
18.13 0.00823187
18.17 0.00195055
18.21 0.0279059
18.25 0.00511579
18.29 -0.00447021
18.33 0.0233121
18.37 -0.00241157
18.41 -0.00561893
18.45 -0.00151016
18.49 0.0065118
18.53 0.00414132
18.57 0.0287181
18.61 0.0314592
18.65 0.0356734
18.69 0.016645
18.73 0.0253501
18.77 0.0223094
18.81 0.0214451
18.85 0.0303583
18.89 0.0197956
18.93 0.0144754
18.97 0.0110072
19.01 0.0139921
19.05 0.00888927
19.09 0.00948881
19.13 -0.016032
19.17 0.0243389
19.21 0.0145404
19.25 0.00729007
19.29 0.000637705
19.33 0.000269934
19.37 0.0214092
19.41 0.0158401
19.45 0.0107408
19.49 0.0240101
19.53 0.00747169
19.57 0.0232251
19.61 0.0173502
19.65 0.0147703
19.69 -0.00602505
19.73 0.0209174
19.77 0.00617972
19.81 0.0260365
19.85 0.0200741
19.89 0.0110968
19.93 0.0118985
19.97 -0.00292699
20.01 0.0199905
20.05 -0.010363
20.09 0.00505268
20.13 0.00797262
20.17 0.024572
20.21 -0.00676408
20.25 0.000100862
20.29 0.00626452
20.33 -0.00611891
20.37 0.0292915
20.41 0.0145987
20.45 -0.00360176
20.49 0.0031989
20.53 0.0168262
20.57 -0.00842712
20.61 0.0128752
20.65 -0.00350099
20.69 0.0226276
20.73 0.0244179
20.77 0.00485095
20.81 -0.000456688
20.85 0.0112343
20.89 0.0130538
20.93 0.0122332
20.97 0.0115932
21.01 0.000567853
21.05 -0.0130692
21.09 0.00914563
21.13 0.00474821
21.17 0.0134389
21.21 0.0156779
21.25 0.00785261
21.29 0.0170992
21.33 -0.00431783
21.37 0.00226975
21.41 0.00661194
21.45 -0.00283863
21.49 0.00821729
21.53 0.00533351
21.57 -0.00599505
21.61 -0.00837019
21.65 0.00566119
21.69 -0.00666726
21.73 0.0202842
21.77 0.0079755
21.81 0.0296763
21.85 0.0101606
21.89 -0.00140936
21.93 0.00692845
21.97 0.0195965
22.01 0.0206721
22.05 -0.00468775
22.09 0.00937573
22.13 0.000555506
22.17 0.0240006
22.21 0.0157903
22.25 0.011798
22.29 0.0277475
22.33 0.0162535
22.37 0.0177535
22.41 0.0207871
22.45 0.00172775
22.49 0.0171657
22.53 0.0102521
22.57 0.0255485
22.61 0.0163778
22.65 0.0263949
22.69 0.0311573
22.73 0.0252027
22.77 0.0478385
22.81 0.0496333
22.85 0.0624013
22.89 0.0507592
22.93 0.0666617
22.97 0.0627033
23.01 0.0469866
23.05 0.0365897
23.09 0.030707
23.13 0.0267451
23.17 0.00624612
23.21 0.020792
23.25 0.0131296
23.29 0.0288332
23.33 0.0195949
23.37 0.0406502
23.41 0.0200127
23.45 0.0127194
23.49 0.0143972
23.53 0.0219715
23.57 0.0224161
23.61 0.0274143
23.65 0.0450224
23.69 0.0341563
23.73 0.0470396
23.77 0.0250353
23.81 0.0304531
23.85 0.041712
23.89 0.0256072
23.93 0.0223603
23.97 0.0245375
24.01 0.0166613
24.05 0.00969258
24.09 0.0173019
24.13 0.0429954
24.17 0.0152629
24.21 0.02671
24.25 0.0389368
24.29 0.0297994
24.33 0.018952
24.37 0.0219954
24.41 0.0315566
24.45 0.030143
24.49 0.0207837
24.53 0.0354085
24.57 0.0245749
24.61 0.0113742
24.65 0.0414006
24.69 0.016338
24.73 0.0200189
24.77 0.0186248
24.81 0.0154838
24.85 0.015063
24.89 0.0312769
24.93 0.0316912
24.97 0.0353425
25.01 0.0270951
25.05 0.00999548
25.09 0.0363783
25.13 0.0429608
25.17 0.0261228
25.21 0.034547
25.25 0.0470951
25.29 0.0385967
25.33 0.0411255
25.37 0.0446965
25.41 0.0630328
25.45 0.0599619
25.49 0.0641474
25.53 0.0724175
25.57 0.0803418
25.61 0.100386
25.65 0.111855
25.69 0.10169
25.73 0.1265
25.77 0.153478
25.81 0.181645
25.85 0.212903
25.89 0.251797
25.93 0.336978
25.97 0.421347
26.01 0.473966
26.05 0.589269
26.09 0.714569
26.13 0.804417
26.17 0.858525
26.21 0.889414
26.25 0.834552
26.29 0.718671
26.33 0.581132
26.37 0.476219
26.41 0.377481
26.45 0.28588
26.49 0.222288
26.53 0.144974
26.57 0.128238
26.61 0.107095
26.65 0.0548107
26.69 0.0644727
26.73 0.0714207
26.77 0.0542581
26.81 0.044596
26.85 0.0502643
26.89 0.0340615
26.93 0.0356424
26.97 0.0277985
27.01 0.0333007
27.05 0.0258262
27.09 0.0210518
27.13 0.0257635
27.17 0.0157275
27.21 0.0192002
27.25 0.0042754
27.29 0.0211103
27.33 0.00108683
27.37 0.0100238
27.41 0.0157942
27.45 0.0255318
27.49 0.00401851
27.53 0.0127174
27.57 0.0112585
27.61 -0.00134563
27.65 0.0070354
27.69 0.0245635
27.73 0.0171207
27.77 0.0129797
27.81 0.0108361
27.85 0.00525601
27.89 0.00500916
27.93 0.0490491
27.97 0.0384065
28.01 0.0711048
28.05 0.0931427
28.09 0.120297
28.13 0.13294
28.17 0.103066
28.21 0.0774002
28.25 0.0580988
28.29 0.0352096
28.33 0.0233058
28.37 0.0289097
28.41 0.00972709
28.45 0.0135402
28.49 0.020848
28.53 0.0185349
28.57 0.00999642
28.61 -0.00782799
28.65 0.0168753
28.69 0.0217318
28.73 -0.00505979
28.77 0.00160183
28.81 0.00910291
28.85 -0.014406
28.89 -0.00820003
28.93 0.013635
28.97 0.0133841
29.01 0.0130526
29.05 0.020361
29.09 0.0119549
29.13 0.0117724
29.17 0.00836346
29.21 -0.00110906
29.25 0.0186868
29.29 0.0126109
29.33 0.018057
29.37 0.0164294
29.41 0.0407555
29.45 0.0665993
29.49 0.0590751
29.53 0.0640962
29.57 0.0440944
29.61 0.0292209
29.65 0.00590323
29.69 0.0126179
29.73 0.00824192
29.77 -0.000327316
29.81 0.00590055
29.85 0.00686937
29.89 -0.000741838
29.93 0.0138382
29.97 -0.00340835
30.01 -0.0035078
30.05 -0.00427491
30.09 0.00831548
30.13 0.0215408
30.17 0.000167618
30.21 0.0139836
30.25 0.0287516
30.29 0.059891
30.33 0.105842
30.37 0.177123
30.41 0.243705
30.45 0.319708
30.49 0.346517
30.53 0.323598
30.57 0.237503
30.61 0.153632
30.65 0.0746982
30.69 0.0288033
30.73 0.0143889
30.77 0.015824
30.81 0.00587659
30.85 -0.0103504
30.89 0.00878442
30.93 0.0195932
30.97 -0.0119461
31.01 -0.00164814
31.05 0.00512619
31.09 -0.00169784
31.13 0.00899042
31.17 0.00657472
31.21 0.00695407
31.25 0.00152757
31.29 0.00405872
31.33 0.00287038
31.37 0.00521152
31.41 0.00231289
31.45 0.0140427
31.49 0.0109541
31.53 0.00337341
31.57 -0.0120544
31.61 0.00730143
31.65 0.00307445
31.69 -0.00654604
31.73 0.00422108
31.77 0.00505467
31.81 0.00817089
31.85 0.00178213
31.89 0.00522422
31.93 0.00350316
31.97 -0.00535159
32.01 0.00644615
32.05 -0.00717866
32.09 0.0195693
32.13 0.00750981
32.17 0.000319371
32.21 0.00803921
32.25 0.0201669
32.29 0.0322245
32.33 0.0411647
32.37 0.0604592
32.41 0.125078
32.45 0.218543
32.49 0.386363
32.53 0.634987
32.57 0.881808
32.61 0.967863
32.65 0.900196
32.69 0.693977
32.73 0.449532
32.77 0.245054
32.81 0.123502
32.85 0.0551552
32.89 0.0321919
32.93 0.0133021
32.97 0.0236977
33.01 0.00192922
33.05 0.00287308
33.09 0.00556068
33.13 0.0143498
33.17 0.00947174
33.21 -0.00527963
33.25 3.60478e-05
33.29 -0.00195473
33.33 0.00881857
33.37 0.00809886
33.41 -0.00156276
33.45 -0.00764622
33.49 -0.00477279
33.53 0.0034652
33.57 0.0126746
33.61 -0.00921033
33.65 -0.00825764
33.69 0.00485266
33.73 -5.11018e-05
33.77 0.00670222
33.81 0.00227946
33.85 -0.00137108
33.89 -0.0025611
33.93 0.00300433
33.97 -0.00538312
34.01 0.000193386
34.05 0.00385257
34.09 -0.000130851
34.13 -0.00595124
34.17 -0.00796275
34.21 0.00585621
34.25 -0.00130841
34.29 -0.000512932
34.33 -0.0026646
34.37 0.00206589
34.41 -0.00912373
34.45 0.00860687
34.49 -0.00451922
34.53 -0.0037811
34.57 0.00416639
34.61 -0.00234718
34.65 -0.000689343
34.69 -0.00445069
34.73 -0.00441588
34.77 0.0117285
34.81 -0.00622845
34.85 -0.0100842
34.89 -0.00592541
34.93 -0.00841594
34.97 -0.00391069
35.01 -0.00393867
35.05 -0.000710923
35.09 -0.00535796
35.13 0.00390769
35.17 0.00978312
35.21 0.00412887
35.25 0.0106855
35.29 0.0319331
35.33 0.0336321
35.37 0.0632641
35.41 0.0920687
35.45 0.139434
35.49 0.168432
35.53 0.207135
35.57 0.182849
35.61 0.146169
35.65 0.10453
35.69 0.0696196
35.73 0.0343772
35.77 0.0167957
35.81 0.0102743
35.85 0.00662561
35.89 0.000698843
35.93 0.00856689
35.97 0.000394173
36.01 0.00353905
36.05 0.0070608
36.09 -0.00437421
36.13 0.018195
36.17 0.0106024
36.21 0.0126316
36.25 0.0247396
36.29 0.037127
36.33 0.0552587
36.37 0.0926113
36.41 0.1447
36.45 0.238127
36.49 0.34863
36.53 0.523266
36.57 0.681931
36.61 0.805274
36.65 0.801092
36.69 0.66949
36.73 0.487393
36.77 0.308623
36.81 0.169125
36.85 0.0909889
36.89 0.0448629
36.93 0.0336142
36.97 0.00960432
37.01 0.00379599
37.05 0.000578458
37.09 0.0112262
37.13 -0.00437335
37.17 -0.00267353
37.21 -0.00157387
37.25 -0.00334244
37.29 -0.00314565
37.33 -0.00690467
37.37 0.00177254
37.41 -0.00654581
37.45 0.00249558
37.49 -0.00461484
37.53 0.00346677
37.57 -0.00476427
37.61 -0.0109547
37.65 -0.00227787
37.69 -0.000293784
37.73 0.00371482
37.77 0.000526706
37.81 0.00433987
37.85 -0.00458559
37.89 0.00579422
37.93 0.00813201
37.97 0.0232962
38.01 0.0353705
38.05 0.0619337
38.09 0.0916078
38.13 0.14422
38.17 0.197941
38.21 0.215385
38.25 0.231323
38.29 0.201781
38.33 0.154488
38.37 0.10944
38.41 0.0656661
38.45 0.0328408
38.49 0.0156683
38.53 0.0168907
38.57 0.0108623
38.61 0.00719327
38.65 0.0161732
38.69 0.005904
38.73 0.0083083
38.77 0.0119771
38.81 0.0234029
38.85 0.0262798
38.89 0.0320762
38.93 0.0449323
38.97 0.0560624
39.01 0.0689997
39.05 0.0740312
39.09 0.0830759
39.13 0.0833383
39.17 0.0781121
39.21 0.0894635
39.25 0.104189
39.29 0.112432
39.33 0.117134
39.37 0.133401
39.41 0.132006
39.45 0.146733
39.49 0.141607
39.53 0.150863
39.57 0.146
39.61 0.14627
39.65 0.142214
39.69 0.127148
39.73 0.130024
39.77 0.097857
39.81 0.10388
39.85 0.0912741
39.89 0.085359
39.93 0.0821616
39.97 0.0724776
40.01 0.065683
40.05 0.0586818
40.09 0.066948
40.13 0.0781531
40.17 0.0820567
40.21 0.0919884
40.25 0.0831787
40.29 0.0822216
40.33 0.0608388
40.37 0.0461444
40.41 0.0350532
40.45 0.0167964
40.49 0.0177213
40.53 0.0110928
40.57 0.00708751
40.61 0.00430519
40.65 0.00356201
40.69 -0.00503492
40.73 -0.00459448
40.77 0.00258105
40.81 0.00345043
40.85 -0.00329268
40.89 0.000815838
40.93 0.0015705
40.97 -0.0057594
41.01 -0.00728341
41.05 0.00289382
41.09 -0.00317303
41.13 0.00225852
41.17 -0.00353624
41.21 0.0078792
41.25 -0.00757911
41.29 -0.00565088
41.33 -0.00454999
41.37 0.00584052
41.41 -0.00787429
41.45 0.00124069
41.49 -0.00699592
41.53 -0.00230288
41.57 -0.00709598
41.61 -0.00315601
41.65 0.0156795
41.69 0.00652994
41.73 0.0148044
41.77 0.0116751
41.81 0.0122027
41.85 0.0144818
41.89 0.0146573
41.93 0.00759826
41.97 0.0246603
42.01 0.00657076
42.05 0.0229173
42.09 0.00598802
42.13 0.0032308
42.17 0.00442635
42.21 0.00186823
42.25 -0.00982712
42.29 -0.00984992
42.33 0.00231388
42.37 -0.00388428
42.41 -0.00236916
42.45 -0.00486202
42.49 0.00613115
42.53 0.00427535
42.57 -0.000359509
42.61 0.00234854
42.65 -0.000174516
42.69 0.0104393
42.73 0.00517156
42.77 -0.00607461
42.81 -0.00409301
42.85 -0.00261716
42.89 0.00974169
42.93 0.00247146
42.97 -0.00519846
43.01 0.00186127
43.05 -0.00868255
43.09 -0.00956123
43.13 0.00336548
43.17 -0.00415165
43.21 -0.0010641
43.25 0.00498877
43.29 0.00225523
43.33 0.000550002
43.37 -0.000659948
43.41 0.0101155
43.45 -0.00491795
43.49 -0.00352305
43.53 -0.00329891
43.57 0.00413834
43.61 0.000194842
43.65 0.0106781
43.69 -0.0012732
43.73 -0.000871255
43.77 0.00480743
43.81 0.000875149
43.85 -0.00419796
43.89 -0.00152943
43.93 0.0115987
43.97 -0.00140355
44.01 0.00399364
44.05 -0.00310819
44.09 0.00197459
44.13 0.0070195
44.17 0.00095866
44.21 -0.00452108
44.25 0.0114456
44.29 3.40554e-05
44.33 0.00652541
44.37 -0.00694699
44.41 0.0110288
44.45 0.00111247
44.49 -0.00163625
44.53 -0.00431759
44.57 -0.00845564
44.61 0.00479208
44.65 -0.00729512
44.69 0.00651305
44.73 -0.0024755
44.77 0.00144075
44.81 -0.000859256
44.85 -0.00197222
44.89 -0.000140764
44.93 -0.00195545
44.97 -0.00609252
45.01 0.00953011
45.05 -0.00200167
45.09 -0.00749899
45.13 -0.00526948
45.17 0.00011339
45.21 0.00366732
45.25 0.0107788
45.29 0.00227929
45.33 0.00893772
45.37 0.0135199
45.41 0.0240806
45.45 0.0290668
45.49 0.0364949
45.53 0.0504195
45.57 0.0501123
45.61 0.0402733
45.65 0.0252234
45.69 0.0175239
45.73 0.00545966
45.77 0.00618445
45.81 0.0185954
45.85 0.00569836
45.89 0.0130563
45.93 0.00771437
45.97 -0.000668932
46.01 -0.00302669
46.05 0.014038
46.09 0.0102071
46.13 0.0184976
46.17 0.00518544
46.21 0.00752446
46.25 0.0208117
46.29 0.00783349
46.33 0.0177156
46.37 0.015038
46.41 0.0290317
46.45 0.0223476
46.49 0.0267796
46.53 0.03577
46.57 0.0470687
46.61 0.0741313
46.65 0.0915479
46.69 0.120078
46.73 0.152433
46.77 0.191518
46.81 0.225424
46.85 0.237486
46.89 0.219216
46.93 0.198358
46.97 0.151487
47.01 0.119354
47.05 0.0799892
47.09 0.0520196
47.13 0.0358845
47.17 0.021002
47.21 0.0104454
47.25 0.00774461
47.29 0.00902967
47.33 0.00845059
47.37 -0.00599953
47.41 -0.00286671
47.45 0.000802767
47.49 0.00194563
47.53 0.000421492
47.57 -0.0034909
47.61 0.00695104
47.65 -0.00169568
47.69 0.00393963
47.73 -0.00296125
47.77 -0.00895996
47.81 0.00523833
47.85 0.00581502
47.89 -0.000241115
47.93 -0.00609668
47.97 -0.0010029
48.01 0.00214245
48.05 0.0112914
48.09 -0.00616912
48.13 -0.000199749
48.17 0.00807227
48.21 -0.0032457
48.25 0.0098453
48.29 0.00611429
48.33 0.0172801
48.37 0.0150486
48.41 0.0290912
48.45 0.0428125
48.49 0.0604179
48.53 0.093824
48.57 0.129443
48.61 0.15261
48.65 0.17717
48.69 0.171477
48.73 0.169185
48.77 0.142622
48.81 0.121139
48.85 0.102337
48.89 0.077884
48.93 0.0648048
48.97 0.041983
49.01 0.0263725
49.05 0.0221388
49.09 0.00260785
49.13 0.0101115
49.17 0.00966933
49.21 -0.00168847
49.25 0.00957989
49.29 0.0116743
49.33 0.0104935
49.37 0.0186447
49.41 0.0208674
49.45 0.0231005
49.49 0.0344362
49.53 0.0428188
49.57 0.053149
49.61 0.0632223
49.65 0.0921238
49.69 0.127742
49.73 0.170633
49.77 0.22706
49.81 0.268233
49.85 0.299355
49.89 0.311863
49.93 0.303813
49.97 0.255766
50.01 0.216719
50.05 0.155196
50.09 0.113152
50.13 0.0721722
50.17 0.0479545
50.21 0.0306702
50.25 0.0277229
50.29 0.0166986
50.33 0.0091588
50.37 0.0171062
50.41 -0.00079691
50.45 0.00874923
50.49 -0.000671205
50.53 0.00672944
50.57 0.0147826
50.61 0.0235256
50.65 0.0248878
50.69 0.0439607
50.73 0.0460038
50.77 0.051316
50.81 0.0509655
50.85 0.050266
50.89 0.0348287
50.93 0.0302295
50.97 0.0141623
51.01 0.00809367
51.05 -0.00125113
51.09 -0.0015745
51.13 0.000223456
51.17 -0.0046879
51.21 -0.00481342
51.25 -0.000802757
51.29 -0.0013686
51.33 -0.00415579
51.37 -0.00069461
51.41 -0.00105851
51.45 -0.00168887
51.49 -0.000167467
51.53 0.00170985
51.57 -0.00392125
51.61 -0.00513772
51.65 -0.00201183
51.69 -0.00416493
51.73 -0.00522161
51.77 -0.00964403
51.81 -0.0050727
51.85 -0.00271817
51.89 -0.00625464
51.93 -0.00900105
51.97 -0.00313593
52.01 0.000518412
52.05 -0.00265719
52.09 -0.00459844
52.13 0.00096298
52.17 -0.000354442
52.21 -0.00552639
52.25 -0.00106226
52.29 0.00248421
52.33 0.00663577
52.37 0.0027172
52.41 0.00790096
52.45 0.0142506
52.49 0.00811169
52.53 0.0169645
52.57 0.0132717
52.61 0.0255134
52.65 0.0287267
52.69 0.0301803
52.73 0.038723
52.77 0.0327703
52.81 0.0326732
52.85 0.0258875
52.89 0.0203562
52.93 0.0138791
52.97 0.0158113
53.01 0.00821976
53.05 0.000930784
53.09 -0.00880197
53.13 0.00125045
53.17 0.00290421
53.21 -0.00196088
53.25 0.00146218
53.29 -0.00415709
53.33 0.00153171
53.37 -0.00030622
53.41 0.00681162
53.45 0.0112164
53.49 0.00810885
53.53 0.0161828
53.57 0.0213342
53.61 0.0171295
53.65 0.031845
53.69 0.0176872
53.73 0.0121298
53.77 0.0136348
53.81 0.00676952
53.85 0.00990182
53.89 -0.00264012
53.93 0.00382376
53.97 0.00340099
54.01 -0.00132038
54.05 0.00373196
54.09 -0.0024794
54.13 0.00568145
54.17 0.00273318
54.21 0.0026994
54.25 -0.000388464
54.29 -0.0024664
54.33 -0.00305905
54.37 0.00343953
54.41 0.00302709
54.45 0.00708592
54.49 -0.000897563
54.53 -0.00111924
54.57 0.00222077
54.61 0.00721004
54.65 0.00904475
54.69 0.00397127
54.73 0.00589255
54.77 0.00413758
54.81 0.00944555
54.85 0.0201629
54.89 0.0144541
54.93 0.0227724
54.97 0.0212478
55.01 0.0271323
55.05 0.0355596
55.09 0.0324371
55.13 0.0360638
55.17 0.0341152
55.21 0.0364027
55.25 0.0495044
55.29 0.0428887
55.33 0.0417012
55.37 0.0519753
55.41 0.0584992
55.45 0.0712401
55.49 0.0771688
55.53 0.0867531
55.57 0.0976689
55.61 0.0840826
55.65 0.0823555
55.69 0.0796974
55.73 0.0636231
55.77 0.0544107
55.81 0.0510604
55.85 0.0419663
55.89 0.0429923
55.93 0.0361581
55.97 0.0354056
56.01 0.0303683
56.05 0.0287335
56.09 0.0222969
56.13 0.0182443
56.17 0.0138624
56.21 0.012421
56.25 0.0089015
56.29 0.00868535
56.33 0.00929988
56.37 -0.00037845
56.41 0.00309097
56.45 -0.0013834
56.49 0.00623297
56.53 -0.00381168
56.57 0.000334345
56.61 -0.00365048
56.65 -0.000709237
56.69 -0.000612611
56.73 -0.00683084
56.77 -0.00250392
56.81 -0.00778472
56.85 -0.00159601
56.89 -0.0042582
56.93 0.00526896
56.97 0.0066387
57.01 -0.00243465
57.05 -0.00498109
57.09 0.00322171
57.13 -0.000277621
57.17 -0.0036653
57.21 0.00135383
57.25 -0.00228652
57.29 0.00358507
57.33 -0.00793073
57.37 -0.0047396
57.41 0.00126525
57.45 -2.25584e-05
57.49 -0.000105375
57.53 -0.00765668
57.57 0.00379659
57.61 0.00839789
57.65 0.015648
57.69 0.00216827
57.73 0.0140066
57.77 0.00790115
57.81 0.0157573
57.85 0.0183028
57.89 0.0238881
57.93 0.032391
57.97 0.0427746
58.01 0.0491905
58.05 0.0497787
58.09 0.0570794
58.13 0.0625121
58.17 0.0692137
58.21 0.0808356
58.25 0.0876511
58.29 0.0861212
58.33 0.0930931
58.37 0.0932128
58.41 0.0955254
58.45 0.0880265
58.49 0.0905091
58.53 0.0781958
58.57 0.0718084
58.61 0.0576681
58.65 0.0425574
58.69 0.0367318
58.73 0.0307445
58.77 0.019639
58.81 0.0104588
58.85 0.00783351
58.89 -0.00234868
58.93 -0.00176562
58.97 0.00439658
59.01 0.00202971
59.05 0.00546736
59.09 0.00153885
59.13 -0.000456878
59.17 0.00585856
59.21 0.00250763
59.25 0.00108744
59.29 0.00342855
59.33 0.00300353
59.37 0.0036563
59.41 0.00579429
59.45 0.00240289
59.49 0.00283
59.53 0.00488485
59.57 0.00913721
59.61 0.00506302
59.65 0.00347372
59.69 2.56377e-05
59.73 0.000697607
59.77 -0.00781832
59.81 0.0118846
59.85 0.00170995
59.89 0.00156616
59.93 0.000418434
59.97 -0.00686449
60.01 -0.000466697
60.05 0.000178746
60.09 -0.00457278
60.13 -0.00241834
60.17 0.00879323
60.21 -0.000501067
60.25 0.00364766
60.29 -0.00324677
60.33 0.00609481
60.37 0.00458675
60.41 0.00310972
60.45 0.00614477
60.49 0.00781714
60.53 0.00623756
60.57 0.0125357
60.61 0.015441
60.65 0.0106989
60.69 0.0268652
60.73 0.0361853
60.77 0.0332507
60.81 0.0430477
60.85 0.0571834
60.89 0.056979
60.93 0.0724945
60.97 0.074162
61.01 0.068059
61.05 0.0732317
61.09 0.0561314
61.13 0.0467957
61.17 0.0467284
61.21 0.0346762
61.25 0.0246075
61.29 0.00888462
61.33 0.00748142
61.37 0.00765318
61.41 0.00874908
61.45 0.00898213
61.49 0.002787
61.53 0.0135468
61.57 0.00980255
61.61 0.00438663
61.65 0.00380985
61.69 -0.0026627
61.73 0.00164905
61.77 -0.00069831
61.81 0.0100253
61.85 0.0130156
61.89 0.00556602
61.93 0.000204825
61.97 0.00809939
62.01 0.0133439
62.05 0.0120198
62.09 0.00824581
62.13 0.0165686
62.17 0.0204515
62.21 0.0147486
62.25 0.0212909
62.29 0.0265714
62.33 0.028413
62.37 0.0252222
62.41 0.0358955
62.45 0.0391539
62.49 0.0406646
62.53 0.0377293
62.57 0.0381115
62.61 0.0296118
62.65 0.0286448
62.69 0.0221828
62.73 0.0300916
62.77 0.0145876
62.81 0.00781009
62.85 0.00774533
62.89 0.0117937
62.93 0.00536155
62.97 0.0247769
63.01 0.0106829
63.05 0.0158627
63.09 0.00696968
63.13 0.00888577
63.17 0.0193161
63.21 0.0162216
63.25 0.0241792
63.29 0.0302796
63.33 0.0483169
63.37 0.0300179
63.41 0.0542668
63.45 0.0585123
63.49 0.0609306
63.53 0.0705673
63.57 0.0757541
63.61 0.071596
63.65 0.0578993
63.69 0.0531238
63.73 0.0466265
63.77 0.0310471
63.81 0.0216453
63.85 0.0131269
63.89 0.0194084
63.93 0.00549018
63.97 0.00886577
64.01 0.0116038
64.05 0.00613232
64.09 0.00188813
64.13 0.00650858
64.17 0.00699571
64.21 0.010162
64.25 0.00802885
64.29 -0.00430912
64.33 0.00553621
64.37 -0.00213697
64.41 -0.000421281
64.45 0.00701159
64.49 0.00688196
64.53 0.00381253
64.57 0.00411994
64.61 0.00216561
64.65 0.00496076
64.69 0.00230496
64.73 0.00442765
64.77 0.00889276
64.81 0.00364794
64.85 0.0106682
64.89 -0.00118365
64.93 0.0010536
64.97 0.00171877
65.01 0.0060086
65.05 0.00956779
65.09 -0.00811314
65.13 0.00566225
65.17 0.00490931
65.21 0.00626127
65.25 0.00313209
65.29 0.00533319
65.33 0.00963427
65.37 0.00673396
65.41 0.00902752
65.45 0.005321
65.49 -0.00244703
65.53 0.010175
65.57 0.00461039
65.61 0.00248462
65.65 0.00403202
65.69 0.00298932
65.73 -0.00361981
65.77 0.0033151
65.81 0.010811
65.85 0.00173347
65.89 0.00500387
65.93 0.0137599
65.97 0.00641774
66.01 0.00419134
66.05 0.000767092
66.09 0.00665297
66.13 0.00498111
66.17 0.0120837
66.21 0.0138556
66.25 0.0158849
66.29 0.0155813
66.33 0.0074587
66.37 0.0112413
66.41 0.00826862
66.45 0.0178097
66.49 0.00929845
66.53 0.0158301
66.57 0.028578
66.61 0.023491
66.65 0.0309365
66.69 0.0250085
66.73 0.0373325
66.77 0.0432505
66.81 0.0332193
66.85 0.0316391
66.89 0.0250473
66.93 0.0250671
66.97 0.0193077
67.01 0.016432
67.05 0.0134295
67.09 0.00698699
67.13 -0.00276644
67.17 0.0082554
67.21 0.00493255
67.25 0.00252629
67.29 0.00524301
67.33 0.0031593
67.37 0.00876335
67.41 -0.00216765
67.45 0.00528979
67.49 0.00727329
67.53 0.000127755
67.57 -0.00132842
67.61 0.00321996
67.65 0.00407484
67.69 0.000352492
67.73 0.000493764
67.77 -0.00310536
67.81 0.00431705
67.85 -0.00066792
67.89 0.0100434
67.93 0.00486839
67.97 0.00231371
68.01 -0.00680584
68.05 0.00129831
68.09 0.00644012
68.13 0.000620781
68.17 0.0105658
68.21 0.00956479
68.25 0.0113541
68.29 0.0199153
68.33 0.0185748
68.37 0.0294081
68.41 0.0376878
68.45 0.0399188
68.49 0.044684
68.53 0.0454282
68.57 0.0359626
68.61 0.0436909
68.65 0.0331636
68.69 0.0432512
68.73 0.0243863
68.77 0.0269415
68.81 0.023514
68.85 0.0208441
68.89 0.0173976
68.93 0.0227536
68.97 0.0246868
69.01 0.0213439
69.05 0.0196505
69.09 0.0151351
69.13 0.00989113
69.17 0.0129203
69.21 0.00300771
69.25 0.0107344
69.29 0.00686202
69.33 0.00844812
69.37 -0.00294275
69.41 0.00142943
69.45 0.00313569
69.49 0.0054794
69.53 -6.92966e-05
69.57 -0.00330479
69.61 -0.00485552
69.65 -0.000757309
69.69 -0.00283308
69.73 0.00915927
69.77 0.000321185
69.81 0.00420117
69.85 -0.00616566
69.89 0.0103079
69.93 0.00149418
69.97 0.0024063
70.01 0.00154107
70.05 0.00223739
70.09 0.00269546
70.13 0.00643719
70.17 0.00731671
70.21 0.00826443
70.25 0.0112764
70.29 0.00887254
70.33 0.00488026
70.37 0.0149104
70.41 0.0120572
70.45 0.0222623
70.49 0.0314414
70.53 0.0368519
70.57 0.0376941
70.61 0.0489651
70.65 0.0472319
70.69 0.0726926
70.73 0.0838505
70.77 0.119191
70.81 0.150243
70.85 0.189248
70.89 0.217737
70.93 0.254885
70.97 0.253954
71.01 0.236402
71.05 0.212818
71.09 0.170326
71.13 0.148565
71.17 0.13311
71.21 0.100163
71.25 0.0772839
71.29 0.0523701
71.33 0.0355483
71.37 0.0256584
71.41 0.0201217
71.45 0.0144094
71.49 0.0212234
71.53 0.00981319
71.57 0.0200297
71.61 0.00824748
71.65 0.00677358
71.69 0.012527
71.73 0.0143192
71.77 0.00961146
71.81 0.00587975
71.85 -0.00384921
71.89 0.00232673
71.93 0.0098226
71.97 0.0126284
72.01 -0.00416482
72.05 0.00959439
72.09 0.0189861
72.13 0.0138693
72.17 0.0138077
72.21 0.0184024
72.25 0.0268898
72.29 0.022346
72.33 0.0386784
72.37 0.0398741
72.41 0.033061
72.45 0.0262245
72.49 0.0280337
72.53 0.0207637
72.57 0.0218656
72.61 0.0112611
72.65 0.0147699
72.69 0.00706169
72.73 0.00973432
72.77 0.00726089
72.81 0.00663945
72.85 0.00191995
72.89 0.00455405
72.93 0.0130799
72.97 0.00576675
73.01 0.0133247
73.05 0.0181
73.09 0.0150365
73.13 0.0230618
73.17 0.0285236
73.21 0.0326715
73.25 0.0266207
73.29 0.0389502
73.33 0.032744
73.37 0.0292018
73.41 0.0368293
73.45 0.0331657
73.49 0.0199171
73.53 0.0253837
73.57 0.0263181
73.61 0.0138561
73.65 0.0155869
73.69 0.0120755
73.73 0.0234161
73.77 0.00971304
73.81 0.00602315
73.85 0.00591671
73.89 0.00618309
73.93 0.00481399
73.97 0.00480381
74.01 0.00503937
74.05 0.010931
74.09 0.00380521
74.13 -0.00432807
74.17 0.00609108
74.21 -0.00290804
74.25 0.00502829
74.29 0.0079872
74.33 0.000644077
74.37 0.000845807
74.41 0.00198562
74.45 -0.00363036
74.49 0.0079012
74.53 0.0112608
74.57 -0.00274116
74.61 0.00315851
74.65 -0.00182081
74.69 0.00295213
74.73 -0.00716277
74.77 0.00235014
74.81 -0.00769208
74.835 -0.00786618