File: data/xrd/xy/2018-09-24T17_37_31.739860+00_00_LBL.xy
'Id: "" Comment: "Integrate frame perovskite0_01_001.gfrmwith cursor Wedge Cursor #1" Operator: "UC Berkeley" Anode: "Co" Scantype: "TwoTheta" TimePerStep: "300"
16.01 -0.036583
16.05 -0.0252941
16.09 0.0327859
16.13 -0.0194956
16.17 -0.00186324
16.21 0.021511
16.25 0.0288334
16.29 0.0387581
16.33 0.055281
16.37 0.0225592
16.41 0.0273157
16.45 0.0257811
16.49 0.0768801
16.53 0.0146829
16.57 0.0252784
16.61 0.0909989
16.65 -0.0059346
16.69 0.0389805
16.73 -0.00647739
16.77 0.00728047
16.81 0.0793937
16.85 0.0405003
16.89 0.0729465
16.93 0.0476171
16.97 0.0312716
17.01 0.0278774
17.05 0.0050345
17.09 0.0260327
17.13 0.0586973
17.17 0.0285618
17.21 0.0246804
17.25 0.0262963
17.29 0.0550575
17.33 0.0355068
17.37 0.0338911
17.41 0.0449463
17.45 0.029965
17.49 0.0356292
17.53 0.0258123
17.57 0.0280575
17.61 0.0412824
17.65 0.0326958
17.69 0.0427923
17.73 0.0423547
17.77 0.0515346
17.81 0.060377
17.85 0.0116536
17.89 0.0496276
17.93 0.065806
17.97 0.0618925
18.01 0.0123261
18.05 0.0488021
18.09 0.0628332
18.13 0.0421137
18.17 0.0492055
18.21 0.0449811
18.25 0.0560846
18.29 0.0149905
18.33 0.0583331
18.37 0.092133
18.41 0.0851222
18.45 0.053459
18.49 0.0586873
18.53 0.0515519
18.57 0.0687358
18.61 0.0763488
18.65 0.0514911
18.69 0.00695094
18.73 0.0495125
18.77 0.0409951
18.81 0.0524524
18.85 0.0327769
18.89 0.0506109
18.93 0.0320575
18.97 0.083787
19.01 0.0633729
19.05 0.0675264
19.09 0.0590347
19.13 0.040815
19.17 0.0595796
19.21 0.0437349
19.25 0.0411592
19.29 0.0608075
19.33 0.0434872
19.37 0.0387022
19.41 0.0906612
19.45 0.0323289
19.49 0.074881
19.53 0.0298152
19.57 0.0685343
19.61 0.0348865
19.65 0.0276376
19.69 0.014177
19.73 0.0471943
19.77 0.0527753
19.81 0.0458871
19.85 0.0527501
19.89 0.0287119
19.93 0.0505726
19.97 0.00496902
20.01 0.035917
20.05 0.0171507
20.09 0.0502565
20.13 0.0378126
20.17 0.0174291
20.21 0.0402244
20.25 0.0536733
20.29 0.0370745
20.33 0.044233
20.37 0.0519946
20.41 0.0483854
20.45 0.00558434
20.49 0.0508652
20.53 0.0271074
20.57 0.0338744
20.61 0.0536468
20.65 0.0646337
20.69 0.0128138
20.73 0.0188685
20.77 0.030106
20.81 0.0570445
20.85 0.0051579
20.89 0.0402829
20.93 0.0272817
20.97 0.0695056
21.01 0.049852
21.05 0.0484929
21.09 0.0349067
21.13 0.0705887
21.17 0.0164791
21.21 0.0663992
21.25 0.0138914
21.29 0.0569948
21.33 0.0374909
21.37 0.0492765
21.41 0.0625228
21.45 0.0726296
21.49 0.0699557
21.53 0.0377672
21.57 0.0263591
21.61 0.0479404
21.65 0.038813
21.69 0.0515502
21.73 0.0913584
21.77 0.0467656
21.81 0.0550353
21.85 0.0532617
21.89 -0.0270893
21.93 0.0433587
21.97 0.0816685
22.01 0.0490736
22.05 0.0232773
22.09 0.0370444
22.13 0.0294172
22.17 0.0425122
22.21 0.0146769
22.25 0.0357021
22.29 0.0434234
22.33 0.00909219
22.37 0.0480084
22.41 0.0401874
22.45 -0.00599709
22.49 0.0365231
22.53 0.0701739
22.57 0.0280603
22.61 0.0365464
22.65 0.0438059
22.69 0.0202894
22.73 0.0506211
22.77 0.0415872
22.81 0.028956
22.85 0.0240769
22.89 0.0307901
22.93 0.0366857
22.97 0.0196641
23.01 0.0840776
23.05 0.0520977
23.09 0.0648748
23.13 0.0779387
23.17 0.0445991
23.21 0.0297342
23.25 0.034936
23.29 0.0565593
23.33 0.0468056
23.37 0.0633048
23.41 0.0497893
23.45 0.0564519
23.49 0.027281
23.53 0.0104122
23.57 -0.00649621
23.61 0.0133602
23.65 0.0298414
23.69 0.0648898
23.73 0.0391019
23.77 0.0561164
23.81 0.0367926
23.85 0.0337724
23.89 0.0536255
23.93 0.0772099
23.97 0.0505297
24.01 0.0298031
24.05 0.062482
24.09 0.0529452
24.13 0.0347872
24.17 0.0172385
24.21 0.0230624
24.25 0.0443691
24.29 0.0488462
24.33 0.0732418
24.37 0.0609744
24.41 0.0177766
24.45 0.0341991
24.49 0.0648177
24.53 0.0274493
24.57 0.0351463
24.61 0.0577289
24.65 0.0345374
24.69 0.0338345
24.73 0.0281728
24.77 0.0395305
24.81 0.0661415
24.85 0.0395449
24.89 0.0044202
24.93 0.0787985
24.97 0.016466
25.01 0.0211851
25.05 0.0430512
25.09 0.0522292
25.13 0.0477174
25.17 0.0210875
25.21 -0.00399395
25.25 0.0457421
25.29 0.0601601
25.33 0.0639504
25.37 0.022845
25.41 0.0333395
25.45 0.0229634
25.49 0.0487798
25.53 0.0282161
25.57 0.0418486
25.61 0.0699411
25.65 0.042412
25.69 0.0329718
25.73 0.0583231
25.77 0.0591063
25.81 0.0261449
25.85 0.0215205
25.89 0.0378941
25.93 0.0569697
25.97 0.041465
26.01 0.0564693
26.05 0.103755
26.09 0.0604728
26.13 0.127395
26.17 0.186992
26.21 0.146803
26.25 0.224
26.29 0.193256
26.33 0.202878
26.37 0.136933
26.41 0.11864
26.45 0.109712
26.49 0.0755312
26.53 0.083973
26.57 0.0220272
26.61 0.0520839
26.65 0.0403229
26.69 0.06898
26.73 0.0122958
26.77 -0.00789634
26.81 0.00342601
26.85 0.036037
26.89 0.0297537
26.93 0.016503
26.97 0.00844
27.01 0.00223023
27.05 0.0174196
27.09 0.0194921
27.13 0.010138
27.17 0.0188893
27.21 0.0391442
27.25 0.019412
27.29 0.0295735
27.33 0.0160415
27.37 0.025664
27.41 0.0337075
27.45 0.0238884
27.49 0.00801197
27.53 -0.0147402
27.57 0.0301349
27.61 -0.0162681
27.65 0.00762991
27.69 0.0338133
27.73 0.0493825
27.77 0.0438423
27.81 0.0213083
27.85 0.0139204
27.89 0.0321491
27.93 0.0470672
27.97 0.0468135
28.01 0.0335576
28.05 -0.00209442
28.09 0.0307619
28.13 0.0277339
28.17 0.0309629
28.21 0.0451196
28.25 0.0696684
28.29 0.035075
28.33 0.0269259
28.37 0.0131461
28.41 0.03395
28.45 0.0287735
28.49 0.0338775
28.53 0.0142904
28.57 0.01979
28.61 0.0347601
28.65 0.0247586
28.69 0.0102611
28.73 0.0139927
28.77 0.0105157
28.81 0.0092105
28.85 -0.0101615
28.89 0.0174061
28.93 0.00322735
28.97 0.00887914
29.01 0.0232149
29.05 0.0110565
29.09 0.0537229
29.13 0.0277368
29.17 0.0407239
29.21 0.0408808
29.25 0.0215541
29.29 0.00850142
29.33 0.034475
29.37 0.0207252
29.41 0.0130245
29.45 0.0179994
29.49 0.0457701
29.53 -0.0148536
29.57 0.0578593
29.61 0.0823475
29.65 0.0781548
29.69 0.0634001
29.73 -0.00985128
29.77 0.0357723
29.81 0.0562678
29.85 0.0240496
29.89 0.0130006
29.93 0.0558325
29.97 0.0276815
30.01 0.0345836
30.05 0.0170776
30.09 0.023536
30.13 0.00921391
30.17 0.0405826
30.21 0.0304013
30.25 0.0142911
30.29 0.0172913
30.33 0.0109574
30.37 0.0070938
30.41 0.0439638
30.45 0.0588614
30.49 0.0903365
30.53 0.111144
30.57 0.187006
30.61 0.215834
30.65 0.266308
30.69 0.215355
30.73 0.211331
30.77 0.14036
30.81 0.0948078
30.85 0.0725619
30.89 0.0500512
30.93 0.0447927
30.97 0.0275485
31.01 0.03211
31.05 0.0116785
31.09 -0.0123668
31.13 0.0227185
31.17 0.0159825
31.21 0.0244704
31.25 -0.00445628
31.29 0.00682348
31.33 -0.0219291
31.37 0.0233708
31.41 -0.00488594
31.45 0.0358731
31.49 0.00362007
31.53 -0.007033
31.57 -0.00288236
31.61 0.0147616
31.65 0.0104458
31.69 -0.0277956
31.73 0.00789746
31.77 0.00268991
31.81 0.0332257
31.85 0.00801828
31.89 0.00451107
31.93 0.0226258
31.97 -0.00138456
32.01 -0.0148363
32.05 0.0142542
32.09 0.0097307
32.13 -0.00071891
32.17 0.00796135
32.21 0.00108249
32.25 -0.00174953
32.29 0.020924
32.33 0.00341252
32.37 -0.0206819
32.41 -0.00119396
32.45 -0.00396795
32.49 -0.0122142
32.53 0.00741205
32.57 0.00265162
32.61 0.00121928
32.65 0.0322996
32.69 0.0227202
32.73 0.0794644
32.77 0.0730406
32.81 0.0933213
32.85 0.0815184
32.89 0.0559567
32.93 0.0223802
32.97 0.0266785
33.01 0.00854736
33.05 -0.00529521
33.09 0.0185003
33.13 0.0174838
33.17 0.000852181
33.21 0.00881383
33.25 -0.00317529
33.29 0.000282037
33.33 0.007098
33.37 0.0105903
33.41 -0.00893465
33.45 -0.0108156
33.49 0.0151526
33.53 0.0117741
33.57 -0.0044471
33.61 -0.012925
33.65 0.00100854
33.69 0.000735691
33.73 -0.018644
33.77 -0.0092634
33.81 -0.0243898
33.85 -0.0212612
33.89 0.00274277
33.93 -0.00739581
33.97 -0.0167605
34.01 -0.00744862
34.05 3.33329e-05
34.09 0.0103761
34.13 -0.00708038
34.17 0.00487579
34.21 -9.33945e-05
34.25 -0.0117786
34.29 -0.0135039
34.33 -0.00623388
34.37 0.00279544
34.41 -0.00777945
34.45 0.0173711
34.49 -0.012876
34.53 -0.000780447
34.57 -0.00973011
34.61 -0.00456557
34.65 -0.00522662
34.69 -0.00942888
34.73 -0.00673068
34.77 -0.0120006
34.81 0.00824395
34.85 -0.00133775
34.89 -0.0102262
34.93 0.0174615
34.97 -0.00167574
35.01 0.00724597
35.05 -0.00260227
35.09 0.00683823
35.13 -0.0163973
35.17 -0.00430584
35.21 0.00709917
35.25 -0.0040541
35.29 0.00246061
35.33 8.06113e-06
35.37 -0.00826916
35.41 0.0046554
35.45 0.0127274
35.49 0.0144617
35.53 0.0375769
35.57 0.0590887
35.61 0.0918774
35.65 0.0960595
35.69 0.115416
35.73 0.113393
35.77 0.0877331
35.81 0.0823514
35.85 0.0558998
35.89 0.0270863
35.93 0.0347001
35.97 0.00268269
36.01 0.0243334
36.05 0.00543041
36.09 0.00127788
36.13 0.00863871
36.17 0.00188809
36.21 -0.00358039
36.25 -0.00597475
36.29 0.00362482
36.33 -0.0187392
36.37 0.0111326
36.41 0.00614686
36.45 0.00717649
36.49 0.0287076
36.53 0.0216376
36.57 0.0399769
36.61 0.0708345
36.65 0.100885
36.69 0.16617
36.73 0.22216
36.77 0.256239
36.81 0.247979
36.85 0.232239
36.89 0.167863
36.93 0.135061
36.97 0.102184
37.01 0.0586859
37.05 0.0350527
37.09 0.0150666
37.13 0.0138169
37.17 -0.00344458
37.21 0.00749069
37.25 0.0033837
37.29 0.0131325
37.33 -0.0146188
37.37 0.00521305
37.41 -0.0124581
37.45 -0.0151646
37.49 -0.0235619
37.53 -0.00813651
37.57 -0.0150497
37.61 -0.00127857
37.65 -0.00988485
37.69 -0.00806542
37.73 -0.00480651
37.77 -0.0111951
37.81 -0.0120921
37.85 -0.0131372
37.89 0.000208153
37.93 -0.0182736
37.97 0.0137082
38.01 -0.000579968
38.05 -0.00904871
38.09 -0.0195496
38.13 -0.00359078
38.17 0.0341854
38.21 0.0389778
38.25 0.0721391
38.29 0.0858465
38.33 0.136137
38.37 0.186365
38.41 0.155216
38.45 0.155253
38.49 0.141225
38.53 0.111558
38.57 0.0854076
38.61 0.0444241
38.65 0.0115831
38.69 0.00741977
38.73 0.0038834
38.77 -0.00837395
38.81 0.00169005
38.85 0.0189497
38.89 -0.00452787
38.93 0.00352543
38.97 0.00312802
39.01 -0.0018924
39.05 0.0144467
39.09 0.0042693
39.13 0.00852075
39.17 0.0165027
39.21 0.0155849
39.25 0.0174335
39.29 0.0306455
39.33 0.0283861
39.37 0.0213434
39.41 0.0199147
39.45 0.017894
39.49 0.0219378
39.53 0.00661043
39.57 0.00791499
39.61 0.0233865
39.65 0.0221358
39.69 0.0246316
39.73 0.0225931
39.77 0.0104231
39.81 0.0151801
39.85 0.0277592
39.89 0.0115166
39.93 0.0163928
39.97 0.0177492
40.01 0.0164329
40.05 0.00367687
40.09 0.0167629
40.13 0.0095196
40.17 0.00383945
40.21 0.0129892
40.25 0.0113127
40.29 -0.0158106
40.33 0.00914006
40.37 0.00973924
40.41 0.00208778
40.45 0.00807893
40.49 0.00391847
40.53 0.0067769
40.57 0.00708446
40.61 -0.00588515
40.65 -6.81987e-05
40.69 0.012105
40.73 -0.00386209
40.77 -0.00118728
40.81 -0.00563297
40.85 -0.00921546
40.89 -0.00551459
40.93 0.00355533
40.97 -0.000921862
41.01 0.0153859
41.05 -0.00738746
41.09 -0.00962446
41.13 0.0182938
41.17 -0.00102955
41.21 -0.000887031
41.25 -0.0015348
41.29 -0.00209035
41.33 0.0112565
41.37 -0.0121938
41.41 0.0139774
41.45 -0.00446817
41.49 0.0136617
41.53 -0.00798507
41.57 0.00623071
41.61 -0.00867644
41.65 0.0127121
41.69 0.00397819
41.73 0.0172236
41.77 -0.00621952
41.81 -0.000197511
41.85 0.00762205
41.89 0.0159206
41.93 0.0144288
41.97 0.00816287
42.01 0.0138697
42.05 0.0130746
42.09 0.0144014
42.13 0.0254315
42.17 0.0339133
42.21 0.0138081
42.25 -0.00287376
42.29 0.000844705
42.33 0.015079
42.37 -0.00525307
42.41 0.0155873
42.45 0.0125075
42.49 0.00939226
42.53 0.0134285
42.57 0.000902294
42.61 -0.000735769
42.65 0.0147931
42.69 0.0184222
42.73 -0.00103833
42.77 -0.00152599
42.81 -0.0111165
42.85 -0.00410465
42.89 0.00387859
42.93 -0.0179593
42.97 0.00886513
43.01 -0.00752431
43.05 -0.00231881
43.09 -0.0201352
43.13 0.00608835
43.17 -0.0216337
43.21 0.00876744
43.25 0.00462998
43.29 0.00973647
43.33 0.0232293
43.37 -0.0136233
43.41 0.0298608
43.45 0.0100647
43.49 -0.00379125
43.53 0.00928512
43.57 0.011659
43.61 0.0113391
43.65 0.0301141
43.69 0.0132245
43.73 0.00550304
43.77 0.00573912
43.81 -0.0135052
43.85 0.0157287
43.89 -0.0128199
43.93 0.0113453
43.97 0.0130388
44.01 0.0188508
44.05 0.0126162
44.09 -0.00501971
44.13 0.0156438
44.17 -0.004987
44.21 0.010962
44.25 -0.00414586
44.29 0.00472603
44.33 0.0158654
44.37 0.0157896
44.41 -0.00344219
44.45 0.00482205
44.49 0.00485112
44.53 -0.00404211
44.57 0.00814309
44.61 -0.000204066
44.65 0.00221968
44.69 0.0309025
44.73 -0.00920917
44.77 -0.000442537
44.81 -0.00245364
44.85 -0.00958021
44.89 0.00259979
44.93 0.0093987
44.97 0.0108063
45.01 -0.00661601
45.05 0.0107605
45.09 -0.00285379
45.13 -0.0127193
45.17 0.00111413
45.21 0.024413
45.25 0.00368864
45.29 -0.00852054
45.33 0.0119794
45.37 0.0181427
45.41 0.00346232
45.45 0.00177218
45.49 0.00275185
45.53 0.0219225
45.57 0.0316398
45.61 0.035848
45.65 0.021237
45.69 0.0272895
45.73 0.0355982
45.77 0.0427642
45.81 0.0419613
45.85 0.0259195
45.89 0.0101807
45.93 -0.000619474
45.97 0.00723244
46.01 -0.00310349
46.05 0.0130763
46.09 -0.00589088
46.13 -0.00627857
46.17 0.00151574
46.21 -0.00163623
46.25 0.0164608
46.29 0.0167361
46.33 0.00437781
46.37 -0.00410007
46.41 0.00456905
46.45 0.0101343
46.49 -0.00501763
46.53 0.000764819
46.57 0.0112955
46.61 0.0105156
46.65 0.0186218
46.69 0.0168508
46.73 0.0196417
46.77 0.0207885
46.81 0.0583919
46.85 0.0487264
46.89 0.0837492
46.93 0.106514
46.97 0.132654
47.01 0.198547
47.05 0.218178
47.09 0.300308
47.13 0.362561
47.17 0.323935
47.21 0.293015
47.25 0.215899
47.29 0.11961
47.33 0.0744377
47.37 0.0350911
47.41 0.0142576
47.45 0.0109018
47.49 0.00561157
47.53 0.0074783
47.57 -0.00501181
47.61 0.0143678
47.65 0.00860128
47.69 0.0143419
47.73 0.00679574
47.77 0.00316525
47.81 -0.000183758
47.85 -0.0103805
47.89 -0.00380741
47.93 0.00472561
47.97 -0.00417551
48.01 -0.00708262
48.05 0.00613913
48.09 -0.00399705
48.13 -0.0175144
48.17 -0.00187447
48.21 0.00777158
48.25 -0.00487633
48.29 -0.00564358
48.33 0.00109714
48.37 -0.00605448
48.41 0.00254285
48.45 0.00753149
48.49 0.00297461
48.53 0.00582538
48.57 0.0281719
48.61 0.0316343
48.65 0.059587
48.69 0.0586314
48.73 0.0870646
48.77 0.149662
48.81 0.172773
48.85 0.178164
48.89 0.186507
48.93 0.1851
48.97 0.158627
49.01 0.130239
49.05 0.10577
49.09 0.0867056
49.13 0.0673936
49.17 0.0498335
49.21 0.0333656
49.25 0.0143501
49.29 0.0209088
49.33 0.0201307
49.37 0.00175677
49.41 0.0086662
49.45 0.00513769
49.49 0.0149287
49.53 0.00852075
49.57 0.0116261
49.61 0.0149078
49.65 0.00996925
49.69 0.0102022
49.73 0.0103696
49.77 0.0168147
49.81 0.0375297
49.85 0.0376597
49.89 0.0453693
49.93 0.0931962
49.97 0.108688
50.01 0.136632
50.05 0.16836
50.09 0.195928
50.13 0.180571
50.17 0.165944
50.21 0.131256
50.25 0.108455
50.29 0.0863374
50.33 0.0431577
50.37 0.0334617
50.41 0.02876
50.45 0.0198597
50.49 0.00180502
50.53 0.0151767
50.57 0.0101648
50.61 0.00497369
50.65 -0.00435714
50.69 0.0101004
50.73 0.00809932
50.77 0.0152816
50.81 0.0443222
50.85 0.0288356
50.89 0.0437301
50.93 0.0467628
50.97 0.0578728
51.01 0.0665627
51.05 0.0502494
51.09 0.0266228
51.13 0.0336452
51.17 0.0236401
51.21 0.0140275
51.25 0.0189452
51.29 0.000877368
51.33 0.0148169
51.37 -0.00383396
51.41 0.00580283
51.45 0.00277519
51.49 0.00150128
51.53 0.002208
51.57 -0.000168838
51.61 -0.00652398
51.65 0.0022025
51.69 -0.00413901
51.73 0.00123505
51.77 -0.000342647
51.81 -0.00463802
51.85 -0.000684247
51.89 0.00311093
51.93 -0.0122112
51.97 -0.0158588
52.01 -0.00692234
52.05 -0.0059232
52.09 -0.0138844
52.13 0.00265234
52.17 -0.00783661
52.21 -0.00302649
52.25 -0.00228615
52.29 -0.00213994
52.33 0.00770609
52.37 0.000599699
52.41 -0.00347653
52.45 -0.000649905
52.49 0.00607941
52.53 0.0022168
52.57 -0.0076083
52.61 -0.00899514
52.65 -0.00204532
52.69 0.00305912
52.73 0.00811395
52.77 0.0132319
52.81 0.0332732
52.85 0.0412077
52.89 0.0330811
52.93 0.029219
52.97 0.0360909
53.01 0.0308188
53.05 0.0149643
53.09 0.0173048
53.13 0.00734518
53.17 0.0169503
53.21 -0.000133063
53.25 0.0149477
53.29 -0.0115141
53.33 -0.00178182
53.37 0.00154924
53.41 -0.00347508
53.45 0.00889539
53.49 -0.00805366
53.53 0.00625003
53.57 0.0151972
53.61 -0.00751533
53.65 0.0112097
53.69 0.0299235
53.73 0.0232752
53.77 0.00967322
53.81 0.0174612
53.85 0.0242838
53.89 0.025516
53.93 0.0152077
53.97 0.01033
54.01 0.0137932
54.05 0.00287721
54.09 0.00990167
54.13 0.0132582
54.17 0.00389046
54.21 -0.00537097
54.25 0.000306776
54.29 0.00390896
54.33 -0.00247328
54.37 -0.00133847
54.41 -0.00124131
54.45 0.00349861
54.49 0.000536601
54.53 -0.00211388
54.57 -0.0141644
54.61 -0.012447
54.65 0.000642252
54.69 0.000694543
54.73 -0.00421244
54.77 0.000629793
54.81 0.00551266
54.85 0.0030496
54.89 0.000361886
54.93 -0.00211781
54.97 -0.00382143
55.01 0.006754
55.05 -0.000312058
55.09 0.00951986
55.13 0.0142138
55.17 0.0134278
55.21 0.0210254
55.25 0.0177755
55.29 0.0165486
55.33 0.0220956
55.37 0.0334417
55.41 0.0157769
55.45 0.0100122
55.49 0.00125183
55.53 0.00361065
55.57 0.0332898
55.61 0.030209
55.65 0.0289133
55.69 0.0359986
55.73 0.0364625
55.77 0.0560292
55.81 0.0395326
55.85 0.0597157
55.89 0.0424895
55.93 0.0275874
55.97 0.0407706
56.01 0.00290854
56.05 0.000475081
56.09 0.0133791
56.13 0.00649053
56.17 0.0175219
56.21 0.0197333
56.25 0.0136169
56.29 0.0219726
56.33 0.0280169
56.37 0.0135124
56.41 0.0102233
56.45 0.00744829
56.49 -0.000601516
56.53 0.0043689
56.57 -0.00999997
56.61 0.0109769
56.65 8.22091e-06
56.69 -0.0151694
56.73 -0.0124235
56.77 -0.00303156
56.81 -0.00517886
56.85 0.0105562
56.89 -0.00381221
56.93 0.00319364
56.97 0.00183523
57.01 0.00484569
57.05 0.00136792
57.09 0.00213449
57.13 0.0140633
57.17 -0.00536096
57.21 0.00472547
57.25 4.94139e-05
57.29 0.0093791
57.33 0.0135372
57.37 -0.00745381
57.41 0.0123606
57.45 0.00625194
57.49 -0.00127694
57.53 -0.00022633
57.57 -0.00182251
57.61 -0.00369463
57.65 0.00477066
57.69 0.016289
57.73 0.0173987
57.77 -0.00887598
57.81 0.023541
57.85 0.0154867
57.89 0.0443557
57.93 0.0321815
57.97 0.0483734
58.01 0.0883928
58.05 0.145877
58.09 0.211993
58.13 0.253155
58.17 0.209227
58.21 0.16262
58.25 0.111945
58.29 0.107917
58.33 0.077669
58.37 0.0819353
58.41 0.0720761
58.45 0.0766562
58.49 0.0846908
58.53 0.0688151
58.57 0.0802705
58.61 0.08866
58.65 0.0827212
58.69 0.0856103
58.73 0.0774426
58.77 0.0695466
58.81 0.0573709
58.85 0.0593738
58.89 0.0503231
58.93 0.0384928
58.97 0.038432
59.01 0.0375243
59.05 0.0246564
59.09 0.00285775
59.13 0.0053669
59.17 0.0151242
59.21 0.00166483
59.25 0.0128334
59.29 0.00519003
59.33 -0.00128433
59.37 0.00878863
59.41 0.0104523
59.45 0.022315
59.49 0.0156603
59.53 0.0059096
59.57 0.0123295
59.61 0.00897161
59.65 -0.00273419
59.69 0.00776801
59.73 0.00901957
59.77 0.00261163
59.81 0.0185276
59.85 0.00891817
59.89 0.00819466
59.93 0.0119507
59.97 0.0164316
60.01 0.00908101
60.05 0.00579039
60.09 0.00259949
60.13 0.0100722
60.17 -0.00197195
60.21 0.0123269
60.25 0.0177889
60.29 0.00915012
60.33 0.0195053
60.37 0.0108935
60.41 0.0183408
60.45 0.0151331
60.49 0.00602469
60.53 0.000949769
60.57 0.0108523
60.61 0.00649073
60.65 0.00619314
60.69 0.0301599
60.73 0.0027105
60.77 0.00107187
60.81 0.0145722
60.85 0.0181641
60.89 0.0292365
60.93 0.0392573
60.97 0.0530404
61.01 0.0648792
61.05 0.0905993
61.09 0.0730743
61.13 0.0876758
61.17 0.0620683
61.21 0.0421185
61.25 0.0394931
61.29 0.0376979
61.33 0.0273774
61.37 0.0124424
61.41 0.00398463
61.45 0.0135697
61.49 0.00986657
61.53 0.0152844
61.57 -0.00118183
61.61 0.00718655
61.65 0.00701975
61.69 0.00819514
61.73 0.0198139
61.77 0.00338653
61.81 0.0137349
61.85 0.00769742
61.89 0.00562057
61.93 0.0110581
61.97 0.01487
62.01 0.00594489
62.05 -0.000786324
62.09 0.00973031
62.13 0.0148997
62.17 4.87387e-05
62.21 0.0155727
62.25 -0.00300751
62.29 0.0187369
62.33 0.0134055
62.37 0.000536384
62.41 0.00283474
62.45 0.0144064
62.49 0.0194184
62.53 0.0148248
62.57 0.0178813
62.61 0.0321713
62.65 0.0327142
62.69 0.0444415
62.73 0.0433394
62.77 0.0269598
62.81 0.0302414
62.85 0.0261604
62.89 0.00733881
62.93 0.0188837
62.97 0.00949787
63.01 0.0217046
63.05 -0.0085767
63.09 0.00602586
63.13 0.00471539
63.17 0.00566352
63.21 0.0141031
63.25 0.0133526
63.29 0.0102036
63.33 0.00638388
63.37 -0.00402057
63.41 0.0147208
63.45 0.0222822
63.49 0.0256057
63.53 0.0282667
63.57 0.0655146
63.61 0.0544319
63.65 0.0903199
63.69 0.0787462
63.73 0.0929728
63.77 0.101873
63.81 0.0960991
63.85 0.0544144
63.89 0.0836502
63.93 0.0759237
63.97 0.049447
64.01 0.0440484
64.05 0.0251887
64.09 0.0327989
64.13 0.0181538
64.17 0.00924498
64.21 0.0109392
64.25 0.0154068
64.29 0.00929945
64.33 -0.00119279
64.37 0.00469149
64.41 0.0160227
64.45 0.0133985
64.49 0.015445
64.53 -0.00358604
64.57 -0.00780426
64.61 -0.000414102
64.65 0.00989852
64.69 0.0138247
64.73 -0.00453305
64.77 -0.00239217
64.81 0.00911707
64.85 0.00785873
64.89 0.0160724
64.93 0.00687606
64.97 0.01748
65.01 -0.00578047
65.05 0.00174537
65.09 -0.00205447
65.13 -0.00927867
65.17 0.0154729
65.21 0.00198263
65.25 0.00733906
65.29 0.00111958
65.33 0.00992121
65.37 0.00638104
65.41 0.00608003
65.45 -0.00394557
65.49 0.00163604
65.53 0.00749324
65.57 0.00718382
65.61 0.00656124
65.65 -0.00593928
65.69 0.00216177
65.73 -0.00129079
65.77 0.00968869
65.81 0.00755666
65.85 -0.00839561
65.89 0.0136523
65.93 0.0194742
65.97 0.0107948
66.01 -0.00139942
66.05 0.0107207
66.09 0.00131044
66.13 0.0208161
66.17 0.0196985
66.21 0.00193641
66.25 0.0104068
66.29 0.00464556
66.33 0.018253
66.37 0.0102238
66.41 0.015704
66.45 0.00426698
66.49 0.0205955
66.53 0.0111949
66.57 0.0217495
66.61 0.00993736
66.65 0.00472299
66.69 0.0323077
66.73 0.0259941
66.77 0.0177768
66.81 0.0144268
66.85 0.0484089
66.89 0.0335895
66.93 0.0511786
66.97 0.0456393
67.01 0.0314373
67.05 0.0444543
67.09 0.0351676
67.13 0.0378605
67.17 0.0280553
67.21 0.013124
67.25 0.0212666
67.29 0.0253521
67.33 -0.0037342
67.37 0.00107105
67.41 0.026074
67.45 0.0249015
67.49 -0.0050837
67.53 0.0110612
67.57 0.00973083
67.61 0.00651928
67.65 0.0185375
67.69 0.0221903
67.73 0.00228968
67.77 -0.00321649
67.81 0.0127527
67.85 0.00831666
67.89 -0.00574399
67.93 -0.00832138
67.97 -0.00534444
68.01 -0.00253088
68.05 -0.0143664
68.09 -0.00232433
68.13 -0.0146163
68.17 -0.00449079
68.21 0.0074117
68.25 0.0073581
68.29 0.00214562
68.33 0.0062974
68.37 0.00437344
68.41 0.0158385
68.45 0.0198098
68.49 0.0183301
68.53 0.0211721
68.57 0.0186549
68.61 0.0239974
68.65 0.02636
68.69 0.0439987
68.73 0.0378147
68.77 0.0403096
68.81 0.0322338
68.85 0.0257462
68.89 0.0463399
68.93 0.0105025
68.97 0.0296504
69.01 0.0325387
69.05 0.0284041
69.09 0.017852
69.13 0.035516
69.17 0.0225045
69.21 0.0248462
69.25 0.0129442
69.29 0.0242361
69.33 0.00654233
69.37 0.0120812
69.41 0.0136701
69.45 0.010263
69.49 0.00550807
69.53 0.000340701
69.57 0.00656092
69.61 -0.00401629
69.65 0.0036677
69.69 0.00103256
69.73 0.0168872
69.77 0.000836721
69.81 0.00911923
69.85 -0.00145809
69.89 0.0107218
69.93 0.00766593
69.97 0.000565907
70.01 -0.00172201
70.05 -0.0112003
70.09 0.00857935
70.13 -0.00328271
70.17 -0.000902017
70.21 -0.00274162
70.25 0.00180164
70.29 0.00845438
70.33 0.00577091
70.37 -0.00909159
70.41 0.00595703
70.45 0.00262567
70.49 0.00141086
70.53 0.0164841
70.57 0.0170575
70.61 0.0203262
70.65 0.0164273
70.69 0.00637275
70.73 0.0135807
70.77 0.0163682
70.81 0.016751
70.85 0.0481421
70.89 0.0497411
70.93 0.0705666
70.97 0.097733
71.01 0.114988
71.05 0.112555
71.09 0.111561
71.13 0.107902
71.17 0.113883
71.21 0.100499
71.25 0.0631068
71.29 0.0527922
71.33 0.0406508
71.37 0.0431424
71.41 0.0380305
71.45 0.0162599
71.49 0.0183706
71.53 0.00820181
71.57 0.0213181
71.61 0.00807804
71.65 0.00858044
71.69 0.0404684
71.73 0.0210158
71.77 0.0283793
71.81 0.0323802
71.85 0.020425
71.89 0.0106379
71.93 0.0296226
71.97 -0.0089109
72.01 0.0102425
72.05 0.0150985
72.09 -0.00296158
72.13 0.00552552
72.17 0.00114735
72.21 0.0209801
72.25 0.0304943
72.29 0.0116593
72.33 0.0178036
72.37 0.0129518
72.41 0.0365533
72.45 0.0362309
72.49 0.0530573
72.53 0.0564453
72.57 0.055796
72.61 0.0444472
72.65 0.0484414
72.69 0.0300699
72.73 0.0398848
72.77 0.0329984
72.81 0.0331335
72.85 0.00194361
72.89 -0.00227549
72.93 0.00353778
72.97 0.00734189
73.01 -0.00167044
73.05 0.00401132
73.09 -0.000276955
73.13 0.00705541
73.17 0.0065804
73.195 -0.0146144