File: data/xrd/xy/2018-12-11T18_27_36.901478+00_00_LBL.xy
'Id: "" Comment: "Integrate frame iprodim_01_001.gfrmwith cursor Wedge Cursor #1" Operator: "UC Berkeley" Anode: "Co" Scantype: "TwoTheta" TimePerStep: "300"
13.995 -0.0374779
14.035 -0.0357675
14.075 0.0196709
14.115 0.0241749
14.155 0.0200894
14.195 0.0825622
14.235 -0.0270998
14.275 0.0310182
14.315 0.0814644
14.355 0.0790351
14.395 0.0376235
14.435 0.0295261
14.475 0.0195006
14.515 0.0521052
14.555 0.0554439
14.595 0.0271342
14.635 0.0702168
14.675 0.0340301
14.715 0.0121304
14.755 0.0771144
14.795 0.0625367
14.835 0.0711357
14.875 0.0565056
14.915 0.0590837
14.955 0.0300566
14.995 0.0363629
15.035 0.0699568
15.075 0.0225883
15.115 0.0337933
15.155 0.0589398
15.195 0.068481
15.235 -0.00872753
15.275 0.0676345
15.315 0.053197
15.355 0.0351311
15.395 0.0884703
15.435 0.103847
15.475 0.0482915
15.515 0.0130737
15.555 0.0422657
15.595 0.0423321
15.635 0.0632854
15.675 0.0417906
15.715 0.0615351
15.755 0.0732713
15.795 0.0446755
15.835 0.0402223
15.875 0.0442518
15.915 0.048616
15.955 0.116014
15.995 0.039655
16.035 0.0724321
16.075 0.0701539
16.115 0.0543119
16.155 0.047695
16.195 0.11232
16.235 0.0729356
16.275 0.0377752
16.315 0.0635739
16.355 0.0818586
16.395 0.0760017
16.435 -0.000191564
16.475 0.0504634
16.515 0.0895801
16.555 0.0124362
16.595 0.0326239
16.635 0.00915639
16.675 0.131998
16.715 0.0267335
16.755 0.10369
16.795 0.0208209
16.835 0.000222962
16.875 0.0414719
16.915 0.0853932
16.955 0.0912256
16.995 0.0671684
17.035 0.0238699
17.075 0.0919769
17.115 0.0905891
17.155 0.127711
17.195 0.0442181
17.235 0.0384571
17.275 0.0706564
17.315 0.0285267
17.355 0.0495272
17.395 0.0747069
17.435 0.0642004
17.475 0.0406124
17.515 0.0717287
17.555 0.100422
17.595 0.11007
17.635 0.0742258
17.675 0.1213
17.715 0.0701275
17.755 0.0726513
17.795 0.0752468
17.835 0.0765816
17.875 0.0460106
17.915 0.108645
17.955 0.0712209
17.995 0.0695026
18.035 0.0704011
18.075 0.0437886
18.115 0.0471689
18.155 0.0467406
18.195 0.0550086
18.235 0.0527006
18.275 0.0384354
18.315 0.0602753
18.355 0.0228104
18.395 0.0481602
18.435 0.0962754
18.475 0.0819537
18.515 0.0459842
18.555 0.0057876
18.595 0.125876
18.635 0.0259886
18.675 0.0149667
18.715 0.0915417
18.755 0.0137489
18.795 0.0455867
18.835 0.0528324
18.875 0.0534338
18.915 0.0680883
18.955 0.0632957
18.995 0.0362428
19.035 0.0816805
19.075 0.0454571
19.115 0.0572523
19.155 0.111791
19.195 0.0762247
19.235 0.0679777
19.275 0.0685718
19.315 0.0221462
19.355 0.0471226
19.395 0.0189484
19.435 0.05803
19.475 0.0861078
19.515 0.0570177
19.555 0.0785479
19.595 0.0904106
19.635 0.015225
19.675 0.0232963
19.715 0.0660546
19.755 0.0777791
19.795 0.10626
19.835 0.0600001
19.875 0.0403293
19.915 0.0931903
19.955 0.0385546
19.995 0.0379735
20.035 0.00297962
20.075 0.0407851
20.115 0.0432559
20.155 0.0732904
20.195 0.0125684
20.235 0.0650362
20.275 0.058169
20.315 0.0839393
20.355 0.066387
20.395 0.0987959
20.435 0.0282212
20.475 0.0470684
20.515 0.0175471
20.555 0.0446835
20.595 0.0231115
20.635 0.0720938
20.675 0.0253601
20.715 0.0609015
20.755 0.0518962
20.795 0.0423665
20.835 0.0297248
20.875 0.0318743
20.915 0.0370628
20.955 0.0827747
20.995 0.0736496
21.035 0.0615197
21.075 0.0661492
21.115 0.0270421
21.155 0.0593855
21.195 0.0623654
21.235 0.0516797
21.275 0.0759238
21.315 0.0664264
21.355 0.0407019
21.395 0.0496365
21.435 0.0417537
21.475 0.087893
21.515 0.0298196
21.555 0.0708254
21.595 0.0306029
21.635 0.0834465
21.675 0.0820865
21.715 0.0783935
21.755 0.0888534
21.795 0.0338219
21.835 0.0644445
21.875 0.0271437
21.915 0.0666563
21.955 0.0308657
21.995 0.106311
22.035 0.0847416
22.075 0.0454011
22.115 0.0627163
22.155 0.0277239
22.195 0.0386088
22.235 0.0461985
22.275 -0.00899345
22.315 0.0468854
22.355 0.00454166
22.395 0.0358576
22.435 0.069245
22.475 0.0360924
22.515 0.045764
22.555 0.0245586
22.595 0.0365588
22.635 0.0732832
22.675 0.0124745
22.715 0.0697216
22.755 0.0618109
22.795 0.0395411
22.835 0.0874386
22.875 0.020649
22.915 0.015132
22.955 0.0641761
22.995 0.00867813
23.035 0.0435311
23.075 0.043288
23.115 0.0569068
23.155 -0.009913
23.195 0.0251629
23.235 0.045776
23.275 0.0152882
23.315 0.043145
23.355 0.0152207
23.395 0.04008
23.435 0.0511125
23.475 0.0177838
23.515 0.0372782
23.555 0.0018044
23.595 -0.013579
23.635 -0.00387997
23.675 0.0174455
23.715 0.0378783
23.755 0.0221888
23.795 -0.0157607
23.835 -0.00271247
23.875 0.0197101
23.915 0.0153298
23.955 0.0761319
23.995 0.0314496
24.035 0.0204002
24.075 0.0365108
24.115 0.00154806
24.155 0.0129215
24.195 0.0475276
24.235 0.0366362
24.275 0.0614345
24.315 0.0329356
24.355 0.0574992
24.395 -0.0151687
24.435 -0.027964
24.475 0.034506
24.515 0.0350343
24.555 0.00418756
24.595 0.0356965
24.635 0.00587601
24.675 0.0594485
24.715 0.0414064
24.755 0.0169748
24.795 0.035553
24.835 0.0340212
24.875 0.031307
24.915 0.0158576
24.955 0.013072
24.995 0.0273672
25.035 0.0379311
25.075 0.0274879
25.115 0.0202371
25.155 0.0179955
25.195 0.0740532
25.235 0.0111245
25.275 0.0537011
25.315 0.028864
25.355 0.0483878
25.395 0.0408462
25.435 -0.00869934
25.475 0.0482142
25.515 0.0166677
25.555 0.088441
25.595 0.035944
25.635 0.0228822
25.675 0.00555704
25.715 0.0184013
25.755 0.0431757
25.795 0.0275988
25.835 0.0222162
25.875 0.0255548
25.915 0.0309427
25.955 0.0116584
25.995 0.0315295
26.035 0.0416884
26.075 0.0356823
26.115 0.0175792
26.155 0.0367499
26.195 -0.00302047
26.235 0.0216903
26.275 0.0224366
26.315 0.00949725
26.355 0.0337157
26.395 0.00814671
26.435 0.00801185
26.475 0.0145831
26.515 0.0118699
26.555 0.0325735
26.595 0.00092258
26.635 0.0150959
26.675 0.0391575
26.715 0.0348395
26.755 0.0550053
26.795 0.0206974
26.835 0.0445414
26.875 0.0197216
26.915 -0.0169065
26.955 0.025226
26.995 0.0549889
27.035 0.0166004
27.075 0.0391321
27.115 -0.00856252
27.155 0.0710644
27.195 0.0221462
27.235 0.0276221
27.275 0.041588
27.315 0.0278325
27.355 0.082598
27.395 0.0800463
27.435 0.127557
27.475 0.066292
27.515 0.0705135
27.555 0.045652
27.595 0.0528099
27.635 0.0506452
27.675 0.0273259
27.715 0.0812262
27.755 -0.00113045
27.795 0.0755358
27.835 0.0195547
27.875 0.0218249
27.915 0.0399411
27.955 0.0252317
27.995 0.0627352
28.035 0.0343781
28.075 0.0432667
28.115 0.0315967
28.155 0.00407408
28.195 0.0473591
28.235 0.015914
28.275 0.0210364
28.315 0.013923
28.355 0.0200273
28.395 0.0161474
28.435 0.0738976
28.475 0.0525446
28.515 0.0359786
28.555 0.0403512
28.595 0.0293393
28.635 0.0430685
28.675 0.0308186
28.715 0.0455728
28.755 0.0610452
28.795 0.0500117
28.835 0.0446357
28.875 0.0526102
28.915 0.0461964
28.955 0.0262629
28.995 0.0755894
29.035 0.0707995
29.075 0.115171
29.115 0.0717509
29.155 0.0698407
29.195 0.058151
29.235 0.109592
29.275 0.184956
29.315 0.270114
29.355 0.349172
29.395 0.416251
29.435 0.341248
29.475 0.300221
29.515 0.178699
29.555 0.139015
29.595 0.143731
29.635 0.0845189
29.675 0.122562
29.715 0.0724384
29.755 0.0623831
29.795 0.0759418
29.835 0.0502092
29.875 0.0392076
29.915 0.00661693
29.955 0.0446473
29.995 0.0217241
30.035 -0.0150121
30.075 0.0339967
30.115 0.0222223
30.155 0.0481611
30.195 0.0221671
30.235 0.0193311
30.275 0.0512929
30.315 0.0612763
30.355 0.0142073
30.395 0.0113186
30.435 0.0258132
30.475 0.0156916
30.515 0.0170318
30.555 0.034395
30.595 0.0165271
30.635 0.0128842
30.675 0.0136066
30.715 0.0254788
30.755 0.0194853
30.795 0.0271413
30.835 0.0396222
30.875 0.0114102
30.915 0.0117295
30.955 0.0172461
30.995 0.0303131
31.035 0.0305393
31.075 0.0238472
31.115 0.0143993
31.155 0.0267341
31.195 0.0135878
31.235 0.00762312
31.275 -0.0132043
31.315 0.0224984
31.355 0.0121886
31.395 -0.00323375
31.435 0.0441194
31.475 0.0245824
31.515 0.0274587
31.555 0.0454669
31.595 -0.00140279
31.635 0.00449429
31.675 0.00558606
31.715 -0.0138646
31.755 0.00114904
31.795 0.0124554
31.835 0.00900828
31.875 0.0287245
31.915 0.0316071
31.955 -0.0154899
31.995 -0.0134943
32.035 -0.00983714
32.075 -0.00286849
32.115 -0.00196316
32.155 0.0246017
32.195 0.0252313
32.235 0.0251235
32.275 0.00985778
32.315 0.0315133
32.355 0.0107337
32.395 0.0073427
32.435 0.0105692
32.475 0.0393892
32.515 0.0375991
32.555 0.0236505
32.595 0.0395585
32.635 0.0317356
32.675 0.0112588
32.715 0.0423088
32.755 0.0427164
32.795 0.00857895
32.835 -0.0279824
32.875 0.00289627
32.915 0.00636527
32.955 0.00814283
32.995 -0.00355607
33.035 -5.02542e-05
33.075 0.0106755
33.115 0.000248057
33.155 0.00895926
33.195 0.0111776
33.235 -0.00907344
33.275 0.0290682
33.315 0.00419821
33.355 0.0113841
33.395 -0.00393103
33.435 0.00548785
33.475 0.0112598
33.515 0.029793
33.555 0.0475941
33.595 0.0531627
33.635 0.0755721
33.675 0.11712
33.715 0.172238
33.755 0.326644
33.795 0.489534
33.835 0.650512
33.875 0.721135
33.915 0.641478
33.955 0.590094
33.995 0.471262
34.035 0.317526
34.075 0.200093
34.115 0.120518
34.155 0.0746851
34.195 0.051108
34.235 0.0294191
34.275 0.00879309
34.315 -0.00254963
34.355 0.0289388
34.395 0.00445173
34.435 0.00710517
34.475 -0.0166237
34.515 0.000885474
34.555 0.0150647
34.595 -0.0138744
34.635 0.0111125
34.675 0.0114333
34.715 -0.00156208
34.755 0.00666126
34.795 0.00973708
34.835 0.0328967
34.875 0.0268672
34.915 0.0328712
34.955 0.0310917
34.995 0.0588377
35.035 0.0766523
35.075 0.0922366
35.115 0.0595711
35.155 0.0913554
35.195 0.0681338
35.235 0.0207063
35.275 0.0375707
35.315 0.0306583
35.355 0.0246506
35.395 0.0218019
35.435 0.0204826
35.475 0.0308899
35.515 0.0576115
35.555 0.0598879
35.595 0.0561436
35.635 0.069743
35.675 0.0443155
35.715 0.0775692
35.755 0.0462907
35.795 0.0423666
35.835 0.0538619
35.875 0.0508331
35.915 0.0607754
35.955 0.0546098
35.995 0.0625366
36.035 0.0393095
36.075 0.0678781
36.115 0.0519726
36.155 0.0202885
36.195 0.0189415
36.235 0.0318254
36.275 0.0156395
36.315 0.0233628
36.355 0.0359176
36.395 0.0243798
36.435 0.0220163
36.475 0.0199272
36.515 0.0244993
36.555 -0.00419824
36.595 0.0203297
36.635 -0.0105174
36.675 0.012079
36.715 0.000145261
36.755 0.00603504
36.795 -0.00792308
36.835 -0.00235192
36.875 0.00367805
36.915 -0.00782378
36.955 0.026938
36.995 0.0578994
37.035 0.0797072
37.075 0.085413
37.115 0.0823718
37.155 0.098102
37.195 0.114538
37.235 0.0972381
37.275 0.0811135
37.315 0.0491305
37.355 0.0474541
37.395 0.0398611
37.435 0.0291043
37.475 0.0379704
37.515 0.0156172
37.555 -0.00356117
37.595 0.0139474
37.635 -0.0163964
37.675 0.0205001
37.715 0.0136911
37.755 -0.00882248
37.795 0.0040646
37.835 -0.00202067
37.875 -0.00153726
37.915 -0.00649515
37.955 -0.00830283
37.995 0.0269722
38.035 -0.00845684
38.075 -0.00131962
38.115 0.036391
38.155 -0.0204159
38.195 -0.000954277
38.235 -0.0216062
38.275 0.0165985
38.315 0.00703869
38.355 0.00635378
38.395 0.0101656
38.435 -0.015746
38.475 -0.00424293
38.515 0.00327478
38.555 0.0235977
38.595 -0.00318684
38.635 0.0180277
38.675 -0.00628751
38.715 0.00773164
38.755 0.0188552
38.795 0.0372559
38.835 0.0159513
38.875 0.0342164
38.915 0.0252217
38.955 0.0424887
38.995 0.0217736
39.035 0.0131402
39.075 -0.00788541
39.115 0.00765256
39.155 -0.000825134
39.195 0.00581507
39.235 0.00702202
39.275 0.0228142
39.315 0.0115814
39.355 0.0112142
39.395 0.0277491
39.435 -0.022344
39.475 0.0185591
39.515 -0.00013161
39.555 -0.00419062
39.595 0.00639314
39.635 -0.000515201
39.675 -0.000118274
39.715 0.0141228
39.755 -0.00185155
39.795 0.00342524
39.835 -0.000915324
39.875 0.0212589
39.915 0.0185504
39.955 0.0136212
39.995 -0.00496886
40.035 0.0215241
40.075 0.0139432
40.115 -0.00600923
40.155 -6.88932e-05
40.195 0.0211711
40.235 0.0103716
40.275 -0.000925663
40.315 -0.000332012
40.355 0.00942655
40.395 0.00568263
40.435 0.00700937
40.475 0.00243864
40.515 -0.00917772
40.555 -0.0191796
40.595 0.00960097
40.635 0.00773833
40.675 -0.0215952
40.715 0.00235671
40.755 -0.0164865
40.795 -0.00152087
40.835 -0.00448642
40.875 0.0236166
40.915 -0.00263651
40.955 0.00961938
40.995 0.00254489
41.035 -0.0190383
41.075 0.00137115
41.115 0.0118411
41.155 -0.00555802
41.195 0.0244658
41.235 -0.00257702
41.275 0.00472715
41.315 -0.00548448
41.355 0.0109265
41.395 0.0139158
41.435 -0.0111385
41.475 -0.00933949
41.515 0.0233912
41.555 -0.00659839
41.595 0.00286646
41.635 0.00124249
41.675 0.00134328
41.715 -0.0112876
41.755 -0.00188871
41.795 0.0201788
41.835 0.017876
41.875 0.000748609
41.915 0.0243923
41.955 0.0230668
41.995 0.000971749
42.035 0.0326567
42.075 0.0384496
42.115 0.0281624
42.155 0.0239926
42.195 -0.000962529
42.235 -0.0115252
42.275 0.000493161
42.315 -0.0119352
42.355 0.00568759
42.395 0.024655
42.435 0.00342994
42.475 0.00208881
42.515 -0.0173252
42.555 -0.0114883
42.595 0.0151079
42.635 -0.00337099
42.675 0.0194486
42.715 0.0168494
42.755 -0.00542743
42.795 0.013963
42.835 0.0203686
42.875 0.00410938
42.915 0.0396846
42.955 0.0295687
42.995 0.0239238
43.035 0.0210367
43.075 0.00851293
43.115 0.0203652
43.155 0.00821456
43.195 0.0215242
43.235 0.0164362
43.275 0.0334093
43.315 0.0314858
43.355 0.0522252
43.395 0.0524555
43.435 0.0211754
43.475 0.0491987
43.515 0.0317588
43.555 0.076023
43.595 0.0484885
43.635 0.0958217
43.675 0.129193
43.715 0.101652
43.755 0.129193
43.795 0.12257
43.835 0.131014
43.875 0.114003
43.915 0.126432
43.955 0.0908796
43.995 0.0930485
44.035 0.0891318
44.075 0.0515867
44.115 0.0639248
44.155 0.0370747
44.195 0.0146358
44.235 0.0593734
44.275 0.0366551
44.315 0.0314722
44.355 0.0517033
44.395 0.0260727
44.435 0.0319134
44.475 0.0691628
44.515 0.101932
44.555 0.0798231
44.595 0.103731
44.635 0.116585
44.675 0.110476
44.715 0.110874
44.755 0.115454
44.795 0.0951338
44.835 0.0733477
44.875 0.0799854
44.915 0.050548
44.955 0.0274798
44.995 0.0237218
45.035 0.0333022
45.075 0.0328847
45.115 0.0212814
45.155 0.0252207
45.195 -5.07628e-05
45.235 0.0278063
45.275 0.0378272
45.315 0.0210652
45.355 0.0199093
45.395 0.0276895
45.435 0.00625831
45.475 0.00855659
45.515 0.0209312
45.555 0.0221352
45.595 -0.00155564
45.635 0.0162217
45.675 -0.00242932
45.715 -0.00776814
45.755 0.000180546
45.795 0.0158403
45.835 -0.0135266
45.875 -3.14289e-05
45.915 0.00122241
45.955 0.0244151
45.995 -0.0117974
46.035 0.00958352
46.075 0.0309565
46.115 0.0305032
46.155 0.00894034
46.195 0.0149571
46.235 0.0219914
46.275 0.00209264
46.315 0.0120396
46.355 0.0175331
46.395 0.00714762
46.435 0.0195068
46.475 0.0197742
46.515 0.0220285
46.555 0.0161244
46.595 0.032716
46.635 0.0268864
46.675 0.0109565
46.715 0.00344262
46.755 0.00438891
46.795 0.00904452
46.835 0.0262825
46.875 0.0133529
46.915 0.0123738
46.955 0.00989067
46.995 0.0155902
47.035 0.0163491
47.075 0.0135501
47.115 0.0219896
47.155 0.0345416
47.195 0.0241069
47.235 0.0387681
47.275 0.0579943
47.315 0.0257772
47.355 0.0499254
47.395 0.0540511
47.435 0.0544421
47.475 0.053307
47.515 0.0748522
47.555 0.0799629
47.595 0.108199
47.635 0.108391
47.675 0.149257
47.715 0.161006
47.755 0.185586
47.795 0.171517
47.835 0.184395
47.875 0.154258
47.915 0.11397
47.955 0.100803
47.995 0.0860554
48.035 0.0606505
48.075 0.0368978
48.115 0.0455905
48.155 0.0460291
48.195 0.0355019
48.235 0.0501652
48.275 0.0236064
48.315 0.0249403
48.355 0.0291127
48.395 0.0224344
48.435 0.00606738
48.475 0.0150826
48.515 0.0173606
48.555 0.00890988
48.595 0.0179871
48.635 0.0123743
48.675 0.00209612
48.715 0.000712146
48.755 -0.00215263
48.795 0.0156788
48.835 0.0118994
48.875 0.0054466
48.915 -0.00323988
48.955 0.0198809
48.995 0.0217285
49.035 0.0143893
49.075 0.0308595
49.115 0.0318687
49.155 0.0243149
49.195 0.0242175
49.235 0.0258381
49.275 0.0305113
49.315 0.0187941
49.355 0.0387527
49.395 0.0407214
49.435 0.037206
49.475 0.0336907
49.515 0.0290673
49.555 0.0394499
49.595 0.0354926
49.635 0.0225067
49.675 0.0389723
49.715 0.0172089
49.755 0.0251257
49.795 0.0118095
49.835 0.0183437
49.875 0.00785796
49.915 -0.00255381
49.955 0.0127274
49.995 0.0119352
50.035 0.00572003
50.075 0.00612169
50.115 -0.00242999
50.155 0.00203907
50.195 0.00735057
50.235 0.0132933
50.275 0.0110432
50.315 -0.0067817
50.355 0.00210651
50.395 0.00349777
50.435 -0.0117024
50.475 0.00482162
50.515 -0.0101101
50.555 -0.00108714
50.595 -0.00952485
50.635 -0.000395262
50.675 0.00155641
50.715 0.00301324
50.755 0.00219904
50.795 0.00823961
50.835 -0.00149693
50.875 -0.00686355
50.915 0.00283098
50.955 0.00986329
50.995 -0.0036559
51.035 0.011084
51.075 -0.00246971
51.115 0.00418832
51.155 0.0220933
51.195 0.0189052
51.235 0.0111737
51.275 0.00797135
51.315 0.0236049
51.355 0.0231564
51.395 0.0169205
51.435 0.0129659
51.475 0.0190269
51.515 0.0216347
51.555 0.00552022
51.595 -0.001768
51.635 0.0148439
51.675 0.00650479
51.715 0.00959739
51.755 0.00105749
51.795 -0.00284425
51.835 -0.00982788
51.875 0.015316
51.915 -0.00372454
51.955 -0.00944581
51.995 0.00579043
52.035 -0.017225
52.075 0.00500696
52.115 -0.01134
52.155 0.00212587
52.195 -0.019084
52.235 0.00486745
52.275 -0.0151126
52.315 -0.00595755
52.355 -0.00381581
52.395 0.00911251
52.435 -0.0118833
52.475 -0.00437434
52.515 0.0160911
52.555 0.00554055
52.595 0.00381242
52.635 0.00921875
52.675 0.0173973
52.715 0.0161992
52.755 0.0100703
52.795 0.0160279
52.835 0.0227815
52.875 0.026127
52.915 0.0110061
52.955 0.016244
52.995 0.0126254
53.035 0.0226206
53.075 0.00838783
53.115 -0.0111708
53.155 -0.00320697
53.195 -0.00169052
53.235 0.00247945
53.275 -0.00748633
53.315 -0.0100279
53.355 -0.0149279
53.395 -0.0150842
53.435 -0.0017982
53.475 -0.0115374
53.515 -0.0138804
53.555 -0.0122801
53.595 -0.0104178
53.635 -0.00618941
53.675 -0.00716284
53.715 -0.000796084
53.755 0.00764285
53.795 -0.000528389
53.835 0.00135919
53.875 -0.00490442
53.915 -0.00063153
53.955 0.00334256
53.995 0.0166695
54.035 0.0176283
54.075 0.0118423
54.115 -0.0039903
54.155 -0.0073767
54.195 0.0172458
54.235 0.0109628
54.275 0.0310896
54.315 0.0139267
54.355 0.0245503
54.395 0.0261272
54.435 0.0308199
54.475 0.0329296
54.515 0.0305742
54.555 0.03289
54.595 0.0425277
54.635 0.0266087
54.675 0.0226598
54.715 0.0417424
54.755 0.0465628
54.795 0.0367301
54.835 0.0468045
54.875 0.0437435
54.915 0.0335438
54.955 0.0292759
54.995 0.0213843
55.035 0.0378508
55.075 0.0284878
55.115 0.0248692
55.155 0.0106376
55.195 0.0367802
55.235 0.0224001
55.275 0.0325046
55.315 0.0399618
55.355 0.0378957
55.395 0.0378478
55.435 0.0270059
55.475 0.0441152
55.515 0.0103687
55.555 0.0318434
55.595 0.0166861
55.635 0.013803
55.675 0.04042
55.715 0.0156468
55.755 0.0219789
55.795 0.0190018
55.835 0.0202114
55.875 0.0248502
55.915 0.0333812
55.955 0.0272697
55.995 0.040348
56.035 0.0349214
56.075 0.0261844
56.115 0.0227775
56.155 0.0177384
56.195 0.0437024
56.235 0.0299666
56.275 0.0223513
56.315 0.0270806
56.355 0.0381033
56.395 0.0163069
56.435 0.0249771
56.475 0.0371122
56.515 0.0387272
56.555 0.0429931
56.595 0.0414656
56.635 0.0603612
56.675 0.056023
56.715 0.0620483
56.755 0.088841
56.795 0.131622
56.835 0.13976
56.875 0.135831
56.915 0.122705
56.955 0.0945513
56.995 0.0655234
57.035 0.0482452
57.075 0.0190223
57.115 0.0260942
57.155 0.00962947
57.195 0.00382554
57.235 0.0130148
57.275 0.0246375
57.315 0.0150323
57.355 0.0266308
57.395 0.0104585
57.435 0.0113682
57.475 0.018914
57.515 0.016506
57.555 0.016286
57.595 0.0189658
57.635 0.0144505
57.675 0.0313383
57.715 0.0331137
57.755 0.0151382
57.795 0.0125585
57.835 0.0176415
57.875 0.042896
57.915 0.0228351
57.955 0.0105729
57.995 0.0245672
58.035 0.0174905
58.075 0.0103582
58.115 0.01438
58.155 -0.00498989
58.195 0.0392224
58.235 0.0059827
58.275 0.0103367
58.315 0.0129058
58.355 0.022896
58.395 0.0027849
58.435 -0.00138835
58.475 0.0175253
58.515 0.0210365
58.555 -0.00422707
58.595 -0.0028161
58.635 0.0238308
58.675 0.0222142
58.715 -0.00364963
58.755 0.0269403
58.795 0.0067621
58.835 0.0327736
58.875 0.0280002
58.915 0.02448
58.955 0.0306419
58.995 0.0224623
59.035 0.0258827
59.075 0.0255415
59.115 0.0142373
59.155 0.0200617
59.195 0.0127798
59.235 0.00755895
59.275 0.0104048
59.315 0.0159931
59.355 0.00432123
59.395 0.021628
59.435 0.0175082
59.475 0.0248339
59.515 -0.00462277
59.555 0.0155414
59.595 0.0101708
59.635 0.0233545
59.675 0.00298881
59.715 0.0199143
59.755 0.0310755
59.795 0.00668354
59.835 0.0169298
59.875 0.004945
59.915 0.0175767
59.955 -0.0104391
59.995 0.02148
60.035 -0.00595151
60.075 -0.0033414
60.115 -0.00719223
60.155 0.018984
60.195 5.48686e-05
60.235 0.000777067
60.275 0.00442364
60.315 0.0179591
60.355 0.0158326
60.395 0.00656539
60.435 0.0312184
60.475 -0.00233219
60.515 0.0195474
60.555 0.0224481
60.595 0.0114762
60.635 -0.00218279
60.675 0.0220846
60.715 0.01018
60.755 0.0209453
60.795 0.0243671
60.835 0.0224567
60.875 0.0404513
60.915 0.0272622
60.955 0.0214185
60.995 0.0389579
61.035 0.0200055
61.075 0.0359793
61.115 0.0143637
61.155 0.0300734
61.195 0.0167201
61.235 0.0441419
61.275 0.0311547
61.315 0.0319924
61.355 0.0251401
61.395 0.0241812
61.435 0.00540886
61.475 0.0113088
61.515 0.0305955
61.555 0.00599345
61.595 0.0106595
61.635 -0.00612816
61.675 -0.00899806
61.715 0.000831004
61.755 0.00350431
61.795 0.0216371
61.835 0.0187664
61.875 0.0201705
61.915 0.00862936
61.955 0.0159038
61.995 -0.000974582
62.035 0.0103396
62.075 0.00673246
62.115 0.00259207
62.155 0.00159204
62.195 -0.00649925
62.235 -0.00101343
62.275 -0.00229652
62.315 -0.00147986
62.355 -0.00210556
62.395 -0.007795
62.435 0.0112099
62.475 0.00294624
62.515 0.000344867
62.555 0.0198085
62.595 0.017537
62.635 -0.0125299
62.675 0.0188755
62.715 0.00245933
62.755 0.00663204
62.795 0.00246115
62.835 0.00123388
62.875 -0.00495783
62.915 -0.00821572
62.955 0.0158141
62.995 0.00429669
63.035 -0.00741162
63.075 -0.00430534
63.115 0.0102117
63.155 -0.00232525
63.195 0.0303751
63.235 0.0209116
63.275 0.0145365
63.315 -0.00150168
63.355 0.0162818
63.395 0.00899883
63.435 0.0219701
63.475 0.00494717
63.515 -0.00554894
63.555 0.00911655
63.595 -0.00386455
63.635 0.024369
63.675 0.0159703
63.715 0.0120711
63.755 0.0143339
63.795 0.0128095
63.835 0.0301997
63.875 0.0163242
63.915 0.00359515
63.955 0.00839335
63.995 0.0188263
64.035 0.00532741
64.075 0.0298085
64.115 -0.00286921
64.155 -0.00318158
64.195 0.022948
64.235 0.017409
64.275 0.00281531
64.315 0.010027
64.355 0.0178144
64.395 0.0195782
64.435 0.00165837
64.475 -0.00681148
64.515 0.00378534
64.555 0.0157037
64.595 0.00550141
64.635 0.0013453
64.675 0.00178238
64.715 0.0165988
64.755 -0.010354
64.795 0.00406622
64.835 0.00456456
64.875 0.00654065
64.915 0.00867156
64.955 -0.00381195
64.995 0.00448463
65.035 0.00909634
65.075 -0.00328562
65.115 0.00208906
65.155 -0.000144757
65.195 -0.00667199
65.235 0.00868304
65.275 -0.0015595
65.315 -0.00464993
65.355 -0.0156641
65.395 0.0274869
65.435 0.00339838
65.475 -0.00168004
65.515 0.0201001
65.555 0.036777
65.595 0.0419297
65.635 0.0622619
65.675 0.0708892
65.715 0.0576918
65.755 0.0687804
65.795 0.0514397
65.835 0.0453889
65.875 0.017153
65.915 0.0108108
65.955 0.0128311
65.995 0.00737943
66.035 0.000447741
66.075 -0.0041977
66.115 -0.000508451
66.155 0.00329268
66.195 0.00533245
66.235 0.0143536
66.275 0.0128233
66.315 -0.013456
66.355 0.00841182
66.395 -0.00354806
66.435 -0.009509
66.475 0.00608292
66.515 -0.0093035
66.555 0.0195662
66.595 -0.00876378
66.635 -0.00307376
66.675 0.00325666
66.715 -0.00379331
66.755 -0.00292447
66.795 -0.00545171
66.835 0.00892956
66.875 0.00187128
66.915 0.00234217
66.955 0.00683803
66.995 0.0153784
67.035 -0.0111436
67.075 -0.000163984
67.115 0.00729546
67.155 0.00250247
67.195 -0.00593892
67.235 -0.00697399
67.275 -0.0117024
67.315 -0.00351069
67.355 0.0025586
67.395 0.00489126
67.435 0.00975846
67.475 -0.00308479
67.515 0.00791883
67.555 0.0179095
67.595 0.0159238
67.635 0.0217296
67.675 0.0277123
67.715 0.0272066
67.755 0.0347575
67.795 0.0386819
67.835 0.0569626
67.875 0.0766391
67.915 0.0800985
67.955 0.0681269
67.995 0.0592141
68.035 0.0672176
68.075 0.0414311
68.115 0.0403455
68.155 0.0300336
68.195 0.0327222
68.235 0.0154414
68.275 0.0127609
68.315 0.0164603
68.355 -0.001554
68.395 0.00899167
68.435 0.0131235
68.475 0.0163734
68.515 0.00224489
68.555 0.00530651
68.595 0.00349747
68.635 -0.0131139
68.675 0.00355917
68.715 -0.0109926
68.725 -0.0191496