File: data/xrd/xy/2018-08-28T17_28_06.885285+00_00_LBL.xy
'Id: "" Comment: "Integrate frame perovskite0_01_001.gfrmwith cursor Wedge Cursor #1" Operator: "UC Berkeley" Anode: "Co" Scantype: "TwoTheta" TimePerStep: "300"
13.735 -0.0360325
13.775 0.0427134
13.815 -0.0013583
13.855 0.0298046
13.895 0.0373604
13.935 0.0118358
13.975 0.0923981
14.015 0.0903453
14.055 -0.00367379
14.095 0.0118335
14.135 0.0839075
14.175 0.0539883
14.215 0.0914076
14.255 0.0261362
14.295 0.0364197
14.335 0.0627589
14.375 0.0944849
14.415 0.137252
14.455 0.130123
14.495 0.119528
14.535 0.28463
14.575 0.475657
14.615 0.695901
14.655 0.974164
14.695 1.34286
14.735 1.51576
14.775 1.31227
14.815 1.09225
14.855 0.662685
14.895 0.315823
14.935 0.11163
14.975 0.176207
15.015 0.145718
15.055 0.0363028
15.095 0.0675877
15.135 0.0883527
15.175 0.0477404
15.215 0.135076
15.255 0.0796021
15.295 0.0989242
15.335 0.136948
15.375 0.0849177
15.415 0.0274036
15.455 0.0336749
15.495 0.118649
15.535 0.0456385
15.575 0.0376991
15.615 0.098144
15.655 0.0427109
15.695 0.0928663
15.735 0.0581652
15.775 0.0597214
15.815 0.0691712
15.855 0.0812601
15.895 0.0678915
15.935 0.0414742
15.975 0.0866895
16.015 0.0702054
16.055 0.0514856
16.095 0.0797249
16.135 0.0263047
16.175 0.0602489
16.215 0.0605006
16.255 0.0957589
16.295 0.0798581
16.335 0.0328724
16.375 0.0190508
16.415 0.0890108
16.455 0.0960727
16.495 0.0871471
16.535 0.0703537
16.575 0.05731
16.615 0.0871018
16.655 0.0527583
16.695 0.0295118
16.735 0.0361095
16.775 0.0586485
16.815 0.0471621
16.855 0.0493209
16.895 0.0959662
16.935 0.103006
16.975 0.0502963
17.015 0.0732527
17.055 0.0667929
17.095 0.0506763
17.135 0.0714162
17.175 0.0363635
17.215 0.0716844
17.255 0.0542106
17.295 0.0694915
17.335 0.0641436
17.375 0.0214578
17.415 0.0466448
17.455 0.0461106
17.495 0.0722266
17.535 0.108271
17.575 0.048304
17.615 0.0579336
17.655 0.0617259
17.695 0.124925
17.735 0.105705
17.775 0.113684
17.815 0.0455841
17.855 0.0615112
17.895 0.0538817
17.935 0.045107
17.975 0.0283177
18.015 0.115247
18.055 0.102768
18.095 0.0455978
18.135 0.0551109
18.175 0.0727439
18.215 0.0575071
18.255 0.0995533
18.295 0.00671215
18.335 0.0854671
18.375 0.0477294
18.415 0.0685914
18.455 0.0614132
18.495 0.0281789
18.535 0.0501606
18.575 0.120019
18.615 0.015521
18.655 0.0818792
18.695 0.0581427
18.735 0.00289515
18.775 0.0758811
18.815 0.0406168
18.855 0.0219755
18.895 0.0524003
18.935 0.0683556
18.975 0.0427277
19.015 0.088892
19.055 0.0720234
19.095 -0.00768612
19.135 0.0617296
19.175 0.0618981
19.215 0.0293367
19.255 0.0554134
19.295 0.0582924
19.335 0.081341
19.375 0.0274239
19.415 0.0634118
19.455 0.0250921
19.495 0.0464955
19.535 0.0213543
19.575 0.0804652
19.615 0.0740835
19.655 0.0429461
19.695 0.0305889
19.735 0.0918548
19.775 0.14694
19.815 0.0761781
19.855 0.112747
19.895 0.0665242
19.935 0.0520637
19.975 0.0398274
20.015 0.0499675
20.055 0.0347662
20.095 0.0357114
20.135 0.0429283
20.175 0.0859648
20.215 0.0863342
20.255 0.0360124
20.295 0.061413
20.335 0.106891
20.375 0.0420531
20.415 0.0453649
20.455 0.0407921
20.495 0.0833777
20.535 0.035727
20.575 0.0125192
20.615 0.0387925
20.655 0.0649835
20.695 0.0359997
20.735 0.0251583
20.775 0.0262762
20.815 0.0666703
20.855 0.0428828
20.895 0.0336557
20.935 0.0436353
20.975 0.0489301
21.015 0.0660018
21.055 0.0464799
21.095 0.0400966
21.135 0.0347919
21.175 0.0793619
21.215 0.0454821
21.255 -0.0248781
21.295 0.0544919
21.335 0.0915546
21.375 0.0384166
21.415 0.0726043
21.455 0.0821364
21.495 0.0606863
21.535 0.0572418
21.575 0.0692236
21.615 0.056752
21.655 0.0166494
21.695 0.0313419
21.735 0.0576234
21.775 0.0250654
21.815 0.0432619
21.855 0.0268519
21.895 0.0397527
21.935 0.00612261
21.975 0.0953241
22.015 0.0276122
22.055 0.0343113
22.095 0.0529773
22.135 0.0329993
22.175 0.0019527
22.215 0.0758064
22.255 0.0115759
22.295 0.0825074
22.335 0.0460118
22.375 0.0409362
22.415 0.0675679
22.455 0.111632
22.495 0.0316838
22.535 0.0160107
22.575 0.022819
22.615 0.0484805
22.655 0.0480932
22.695 0.0350228
22.735 0.00715492
22.775 0.0577165
22.815 0.0591934
22.855 0.0403161
22.895 0.0243015
22.935 -0.00751034
22.975 0.0272876
23.015 0.0339813
23.055 0.0334174
23.095 0.0424551
23.135 0.0582807
23.175 0.0190324
23.215 0.0362662
23.255 0.0836375
23.295 0.0711457
23.335 0.0246811
23.375 0.0586399
23.415 0.0454114
23.455 0.0558123
23.495 0.0415026
23.535 0.0490434
23.575 0.0235089
23.615 0.0374605
23.655 0.0755704
23.695 0.0365121
23.735 0.0396758
23.775 0.0471158
23.815 0.0571342
23.855 0.0417167
23.895 0.00749543
23.935 0.0592988
23.975 0.0250905
24.015 0.0518692
24.055 0.0239047
24.095 0.0621244
24.135 0.0958557
24.175 0.0429335
24.215 0.0274999
24.255 0.0445709
24.295 0.0792232
24.335 0.0883998
24.375 0.0220305
24.415 0.0100803
24.455 0.04839
24.495 0.0406596
24.535 0.0701822
24.575 0.0138708
24.615 0.0197481
24.655 0.0283788
24.695 0.0447148
24.735 -0.0100257
24.775 0.0270734
24.815 0.0488566
24.855 0.0441882
24.895 0.0250025
24.935 0.0518762
24.975 0.0115181
25.015 0.0545366
25.055 0.0444997
25.095 0.016314
25.135 0.0419156
25.175 0.010697
25.215 0.0810391
25.255 0.0733417
25.295 0.0321932
25.335 0.0556661
25.375 -0.0075802
25.415 0.0870274
25.455 0.0538569
25.495 0.0367921
25.535 0.0140879
25.575 0.0609764
25.615 0.0393238
25.655 0.0411377
25.695 0.0288369
25.735 0.0503934
25.775 0.0344747
25.815 0.0578895
25.855 0.0551825
25.895 0.0365506
25.935 0.0553776
25.975 0.0471773
26.015 0.0199643
26.055 0.024789
26.095 0.0357511
26.135 0.0855914
26.175 0.113386
26.215 0.0484132
26.255 0.097976
26.295 0.071248
26.335 0.08961
26.375 0.100264
26.415 0.0687737
26.455 0.0602405
26.495 0.0417824
26.535 0.087863
26.575 0.0353923
26.615 0.0362704
26.655 0.0532591
26.695 0.0665159
26.735 0.0446274
26.775 0.0431409
26.815 0.0573309
26.855 0.0677817
26.895 0.00214184
26.935 0.0149237
26.975 0.0332152
27.015 0.0394836
27.055 0.0193561
27.095 0.0280688
27.135 0.0197686
27.175 0.0278183
27.215 0.00586588
27.255 0.0757999
27.295 0.0501065
27.335 0.0560915
27.375 0.0269231
27.415 0.000182064
27.455 0.048813
27.495 0.0230272
27.535 0.0612296
27.575 0.0174928
27.615 0.0318706
27.655 0.0507619
27.695 0.0506855
27.735 0.0405143
27.775 0.0464522
27.815 0.031373
27.855 0.073035
27.895 0.0865135
27.935 0.0724186
27.975 0.121852
28.015 0.0861797
28.055 0.127919
28.095 0.0752745
28.135 0.0138233
28.175 0.0154256
28.215 -4.05743e-05
28.255 0.0366722
28.295 0.0697589
28.335 0.0338378
28.375 0.0314516
28.415 0.0166565
28.455 0.0056324
28.495 0.050444
28.535 0.00908455
28.575 0.011755
28.615 0.03134
28.655 0.0197538
28.695 0.0290061
28.735 0.0109612
28.775 0.0689051
28.815 0.0296755
28.855 0.0201252
28.895 0.0451766
28.935 0.00528122
28.975 0.0593831
29.015 0.0604181
29.055 0.0133817
29.095 0.0131402
29.135 0.0663122
29.175 0.0569572
29.215 0.0615994
29.255 0.0163567
29.295 0.0483149
29.335 0.0366855
29.375 0.0469547
29.415 0.0146031
29.455 0.0505464
29.495 0.032021
29.535 0.0567656
29.575 0.071671
29.615 0.113666
29.655 0.175339
29.695 0.165022
29.735 0.12557
29.775 0.0815709
29.815 0.103709
29.855 0.0644726
29.895 0.0239755
29.935 0.107531
29.975 0.133452
30.015 0.129291
30.055 0.241502
30.095 0.285872
30.135 0.455982
30.175 0.445162
30.215 0.392437
30.255 0.255369
30.295 0.216899
30.335 0.144101
30.375 0.139992
30.415 0.0908687
30.455 0.0194142
30.495 0.009412
30.535 0.0826156
30.575 0.0524537
30.615 0.044089
30.655 0.0385389
30.695 0.0483042
30.735 0.0279471
30.775 0.0307178
30.815 0.0222802
30.855 0.0223443
30.895 0.0384351
30.935 0.0044033
30.975 0.045815
31.015 0.0441934
31.055 0.0240116
31.095 0.0489126
31.135 0.0486229
31.175 0.0567769
31.215 0.0196703
31.255 0.0389995
31.295 0.0147432
31.335 0.0249348
31.375 0.031614
31.415 0.0298205
31.455 0.0132688
31.495 0.0331436
31.535 0.0374246
31.575 0.0517547
31.615 0.0401706
31.655 0.02393
31.695 0.0203817
31.735 0.0164725
31.775 0.00770532
31.815 0.0286063
31.855 0.0205055
31.895 0.0153099
31.935 0.0222983
31.975 -0.0183648
32.015 0.0103706
32.055 -0.00252016
32.095 0.0143998
32.135 0.00168696
32.175 0.0246843
32.215 0.030719
32.255 0.00841108
32.295 0.0147256
32.335 0.0450628
32.375 0.0116519
32.415 0.0179966
32.455 0.0456648
32.495 0.0124897
32.535 0.0311055
32.575 0.045613
32.615 0.027812
32.655 0.0093177
32.695 0.0121842
32.735 0.0116581
32.775 0.0403539
32.815 0.0154842
32.855 0.00836181
32.895 0.0433653
32.935 0.0507666
32.975 0.0837831
33.015 0.0156055
33.055 0.0308001
33.095 0.0214409
33.135 0.017922
33.175 0.0318183
33.215 0.0267574
33.255 0.0145662
33.295 0.0293708
33.335 0.0149102
33.375 0.0186929
33.415 0.0223537
33.455 0.0416907
33.495 0.0101795
33.535 0.0325388
33.575 0.0745352
33.615 0.0606601
33.655 0.0249163
33.695 0.0527051
33.735 0.0353439
33.775 0.026061
33.815 0.0253391
33.855 0.0320948
33.895 0.0370936
33.935 -0.00297602
33.975 0.0626813
34.015 0.0755174
34.055 0.0403238
34.095 0.0491276
34.135 0.0347972
34.175 0.0409895
34.215 0.0367746
34.255 0.00640922
34.295 0.0457058
34.335 0.0449233
34.375 0.0600371
34.415 0.0717703
34.455 0.0859064
34.495 0.0650434
34.535 0.048849
34.575 0.066814
34.615 0.043211
34.655 0.0587624
34.695 0.0605253
34.735 0.0403468
34.775 0.0491156
34.815 0.056767
34.855 0.0411248
34.895 0.0292331
34.935 0.0451286
34.975 0.0366722
35.015 0.0257023
35.055 0.0568679
35.095 0.0551097
35.135 0.013186
35.175 0.0321375
35.215 0.0364156
35.255 0.0307343
35.295 0.0250233
35.335 -0.001184
35.375 0.0320204
35.415 -0.00502992
35.455 0.0172933
35.495 0.037931
35.535 0.0267891
35.575 0.0363641
35.615 0.0133563
35.655 0.0273158
35.695 0.0218967
35.735 0.0500859
35.775 0.0274087
35.815 0.0540238
35.855 0.0425052
35.895 0.0293175
35.935 0.0325184
35.975 0.00710941
36.015 0.0174147
36.055 0.0141632
36.095 0.0273112
36.135 0.0339669
36.175 0.0188304
36.215 0.00705407
36.255 0.0145163
36.295 0.0176739
36.335 0.0105593
36.375 0.0202153
36.415 -0.00209406
36.455 -0.0036904
36.495 -0.0103202
36.535 0.0145988
36.575 -0.0138122
36.615 -0.000891826
36.655 -0.00644896
36.695 0.0240439
36.735 -0.00432672
36.775 0.00707648
36.815 0.0106312
36.855 -0.0145335
36.895 0.00494674
36.935 -0.00261332
36.975 0.0103112
37.015 0.000331955
37.055 -0.00411809
37.095 -0.000322296
37.135 -0.00489495
37.175 -0.00227815
37.215 0.00410602
37.255 -0.00395605
37.295 0.0116845
37.335 -0.013514
37.375 -0.0105734
37.415 0.0102039
37.455 -0.00089824
37.495 0.00809611
37.535 0.00974066
37.575 0.012491
37.615 -0.0140772
37.655 -0.00340379
37.695 -0.0149832
37.735 -0.00130712
37.775 0.00879463
37.815 0.00213738
37.855 0.0130904
37.895 -0.015319
37.935 0.0181426
37.975 0.00294127
38.015 -0.0116351
38.055 0.000920728
38.095 0.00435614
38.135 0.00786785
38.175 0.00551439
38.215 0.012968
38.255 -0.0106455
38.295 0.00206439
38.335 -0.00997484
38.375 0.0269954
38.415 -0.00671964
38.455 -0.00503184
38.495 0.0041924
38.535 0.0103548
38.575 0.00594415
38.615 -0.00883438
38.655 -0.00559455
38.695 -0.0234683
38.735 -0.0148381
38.775 0.0121271
38.815 0.00621759
38.855 0.0152124
38.895 -0.00616571
38.935 -0.0220833
38.975 0.00931833
39.015 -0.0163335
39.055 0.00958162
39.095 -0.00794121
39.135 0.0113336
39.175 0.0138768
39.215 0.0226217
39.255 -0.00280612
39.295 0.00903503
39.335 0.00201978
39.375 0.00232712
39.415 0.0239805
39.455 0.0312376
39.495 0.0107182
39.535 -0.00157827
39.575 0.00615411
39.615 0.0235958
39.655 0.0405329
39.695 0.035606
39.735 0.025256
39.775 0.0402458
39.815 0.0688596
39.855 0.12228
39.895 0.161887
39.935 0.204126
39.975 0.26235
40.015 0.314041
40.055 0.272348
40.095 0.231341
40.135 0.192839
40.175 0.138022
40.215 0.0907192
40.255 0.0628975
40.295 0.0373877
40.335 0.0366251
40.375 0.00226363
40.415 0.0157363
40.455 0.0150939
40.495 0.015871
40.535 0.0133548
40.575 0.0302698
40.615 0.0233394
40.655 0.0097588
40.695 0.022483
40.735 0.0329857
40.775 -0.00196028
40.815 0.015512
40.855 0.0066168
40.895 -0.0157323
40.935 0.001103
40.975 0.00800095
41.015 -5.26138e-05
41.055 0.00216118
41.095 -0.00131285
41.135 0.0332933
41.175 -0.00374744
41.215 -0.0181158
41.255 0.00548371
41.295 -0.00791032
41.335 -0.0104733
41.375 0.0120273
41.415 -0.00273045
41.455 -0.00414492
41.495 0.0111268
41.535 -0.00703574
41.575 0.00794664
41.615 0.00128671
41.655 0.0073154
41.695 0.011349
41.735 0.0270217
41.775 0.0137774
41.815 0.00763411
41.855 -0.00699694
41.895 0.027008
41.935 -0.0115781
41.975 0.00465411
42.015 0.0109729
42.055 0.00343361
42.095 -0.00141473
42.135 0.0142055
42.175 0.0218754
42.215 -0.00252875
42.255 0.0040039
42.295 0.00290906
42.335 0.0020502
42.375 -0.000874196
42.415 -0.0207295
42.455 0.0315578
42.495 0.00127983
42.535 0.00943988
42.575 0.00202476
42.615 0.012514
42.655 0.014684
42.695 0.010232
42.735 0.00913863
42.775 0.0156213
42.815 -0.020805
42.855 0.00650399
42.895 0.00337868
42.935 0.00310202
42.975 0.00492987
43.015 0.0241796
43.055 0.00372379
43.095 0.00547573
43.135 0.0267671
43.175 -0.00716876
43.215 0.0246577
43.255 -0.0137123
43.295 -0.00308442
43.335 0.0231887
43.375 0.0250249
43.415 0.023345
43.455 0.0296128
43.495 -0.0159823
43.535 -0.00670359
43.575 0.0179399
43.615 0.00338017
43.655 0.0508068
43.695 0.023099
43.735 0.00822016
43.775 0.0166713
43.815 -0.0093271
43.855 0.0137615
43.895 0.0156278
43.935 0.0178235
43.975 0.0211704
44.015 0.029491
44.055 0.0195099
44.095 0.0141209
44.135 -0.00415736
44.175 -0.000951968
44.215 0.0203579
44.255 0.0335135
44.295 0.0203308
44.335 0.00382148
44.375 0.0118772
44.415 0.00248381
44.455 0.0333385
44.495 0.042657
44.535 0.00544727
44.575 0.0253714
44.615 0.00711086
44.655 0.0408413
44.695 0.0319657
44.735 0.0496214
44.775 0.0172822
44.815 0.0223904
44.855 0.0402323
44.895 0.0757172
44.935 0.0726399
44.975 0.124708
45.015 0.149064
45.055 0.256565
45.095 0.323961
45.135 0.432649
45.175 0.447045
45.215 0.412984
45.255 0.406127
45.295 0.272073
45.335 0.142013
45.375 0.112344
45.415 0.0791319
45.455 0.0587049
45.495 0.0442688
45.535 0.0198214
45.575 0.00969777
45.615 0.0230131
45.655 0.0237005
45.695 0.0425045
45.735 0.0269252
45.775 0.0119526
45.815 0.0335758
45.855 0.0397602
45.895 0.0489368
45.935 0.0495985
45.975 0.0632796
46.015 0.0880329
46.055 0.122789
46.095 0.206773
46.135 0.274378
46.175 0.413819
46.215 0.56557
46.255 0.629791
46.295 0.575739
46.335 0.468879
46.375 0.333461
46.415 0.220932
46.455 0.13148
46.495 0.10967
46.535 0.0547646
46.575 0.0433281
46.615 0.0481435
46.655 0.03509
46.695 0.025045
46.735 0.0227927
46.775 0.0391514
46.815 0.0265107
46.855 0.0293032
46.895 0.0156658
46.935 0.0192604
46.975 0.041278
47.015 0.0186329
47.055 0.0254449
47.095 0.00546232
47.135 0.000954371
47.175 0.00185304
47.215 0.0232587
47.255 0.00982856
47.295 0.00839087
47.335 0.0147496
47.375 -0.000147266
47.415 0.0238499
47.455 0.0144577
47.495 0.00941453
47.535 0.0254324
47.575 -0.0213216
47.615 0.0140203
47.655 0.0160816
47.695 -0.00207961
47.735 -0.0126496
47.775 0.00867318
47.815 0.0124948
47.855 0.0198127
47.895 0.00427515
47.935 0.0286621
47.975 0.0243866
48.015 0.00903169
48.055 -0.00687517
48.095 -0.010291
48.135 0.0109577
48.175 0.0178821
48.215 -0.00084703
48.255 0.0109956
48.295 0.00825848
48.335 0.0080128
48.375 0.00451518
48.415 0.0116815
48.455 0.0144888
48.495 0.0152042
48.535 0.0217376
48.575 0.022353
48.615 0.0342777
48.655 0.0537497
48.695 0.063473
48.735 0.0672282
48.775 0.0892192
48.815 0.0906525
48.855 0.0807422
48.895 0.0798974
48.935 0.0521286
48.975 0.0580007
49.015 0.0122742
49.055 0.0236919
49.095 0.0155381
49.135 0.0102576
49.175 -0.00313343
49.215 -0.00514361
49.255 0.00519356
49.295 -0.000923096
49.335 0.00833681
49.375 0.00400715
49.415 0.00338501
49.455 -0.00751895
49.495 0.0137848
49.535 -0.000813181
49.575 0.0106916
49.615 -0.00180569
49.655 -0.00870218
49.695 0.00773396
49.735 0.0178573
49.775 -0.0144744
49.815 -0.00136742
49.855 -0.00714421
49.895 0.00972078
49.935 0.012865
49.975 0.00309878
50.015 0.00797943
50.055 0.00998728
50.095 0.0116239
50.135 -0.00404501
50.175 0.00662222
50.215 -0.00409324
50.255 -0.000276337
50.295 0.00179654
50.335 0.00032503
50.375 0.00196042
50.415 0.00448681
50.455 -0.00428426
50.495 -0.00361836
50.535 0.00503517
50.575 0.000454619
50.615 0.0108296
50.655 -0.00345661
50.695 0.00140595
50.735 0.00822935
50.775 0.00525061
50.815 -0.00980826
50.855 0.0041285
50.895 -0.00394895
50.935 -0.00806897
50.975 0.00728968
51.015 0.00543595
51.055 0.000879842
51.095 -0.00428483
51.135 -0.00143683
51.175 -0.00128572
51.215 0.00970751
51.255 -0.00312849
51.295 0.00545457
51.335 0.00289258
51.375 -0.00121766
51.415 0.00321788
51.455 -0.0184235
51.495 -0.000257343
51.535 -0.0105725
51.575 -0.0124227
51.615 0.00483201
51.655 -0.0045172
51.695 -0.00069829
51.735 -0.00210708
51.775 -0.00836065
51.815 0.00223408
51.855 0.0069625
51.895 0.00750835
51.935 -0.00399139
51.975 -0.00949984
52.015 0.00251565
52.055 -0.00416059
52.095 -0.00132421
52.135 -0.00543412
52.175 -0.0176563
52.215 -0.0123014
52.255 0.014511
52.295 -0.0112284
52.335 -0.00650023
52.375 0.00036414
52.415 0.000600203
52.455 -0.00979636
52.495 0.0117121
52.535 -0.000702802
52.575 0.00833306
52.615 0.0102374
52.655 0.00100819
52.695 0.0168458
52.735 0.000463061
52.775 0.0249938
52.815 0.0309277
52.855 0.0424418
52.895 0.0464658
52.935 0.0688194
52.975 0.0686904
53.015 0.0779649
53.055 0.0902792
53.095 0.0827133
53.135 0.0609988
53.175 0.0614093
53.215 0.0359534
53.255 0.0362123
53.295 0.0152287
53.335 0.0120838
53.375 0.0281378
53.415 0.0114271
53.455 0.00702203
53.495 -0.0159229
53.535 0.0104027
53.575 -0.00449398
53.615 -0.00333077
53.655 -0.00881063
53.695 -0.000129981
53.735 -0.00653465
53.775 -0.00628648
53.815 0.00030981
53.855 -0.00499191
53.895 0.000893277
53.935 0.0210477
53.975 -0.00472184
54.015 0.0128034
54.055 0.017597
54.095 0.0115949
54.135 -0.000818793
54.175 0.0198123
54.215 0.00999726
54.255 0.0106187
54.295 0.0188881
54.335 -0.0145077
54.375 0.0172174
54.415 0.000763938
54.455 0.0140201
54.495 -0.0018748
54.535 0.00877716
54.575 -0.00912935
54.615 -0.00642968
54.655 0.00296793
54.695 0.00487186
54.735 0.0138377
54.775 0.0104776
54.815 0.0164268
54.855 0.00570163
54.895 0.00043214
54.935 0.00574645
54.975 0.000767515
55.015 0.00558065
55.055 -0.00285174
55.095 0.00602164
55.135 0.00151181
55.175 0.00371969
55.215 0.00336216
55.255 0.0119145
55.295 -0.00251265
55.335 0.00853842
55.375 0.0081925
55.415 0.00521924
55.455 0.0259181
55.495 0.00893249
55.535 0.0197463
55.575 0.0096861
55.615 0.00309154
55.655 0.0206457
55.695 0.00681193
55.735 0.000384309
55.775 0.0331017
55.815 0.0153129
55.855 0.0126233
55.895 0.000207004
55.935 0.0238955
55.975 0.0365664
56.015 0.0207985
56.055 0.0490439
56.095 0.0544715
56.135 0.083415
56.175 0.0957535
56.215 0.086504
56.255 0.0957959
56.295 0.09233
56.335 0.0730576
56.375 0.0722878
56.415 0.0514528
56.455 0.0595952
56.495 0.0150028
56.535 0.0148498
56.575 0.0330403
56.615 0.025848
56.655 0.0125643
56.695 0.00294873
56.735 0.00298634
56.775 0.00495678
56.815 0.0111545
56.855 0.00844882
56.895 0.0195167
56.935 0.0226299
56.975 -0.000733165
57.015 -0.00442979
57.055 0.00726611
57.095 0.00452688
57.135 0.00621814
57.175 0.0148022
57.215 -0.0030134
57.255 0.0134653
57.295 -0.00115248
57.335 0.00101145
57.375 0.0134064
57.415 0.0123455
57.455 0.000140086
57.495 0.0186783
57.535 0.0068137
57.575 0.0054567
57.615 0.00505359
57.655 0.0127807
57.695 0.0063441
57.735 0.00340273
57.775 0.00304378
57.815 0.0141393
57.855 0.0195162
57.895 0.0236933
57.935 -0.0077193
57.975 0.000360833
58.015 0.0144255
58.055 0.0284434
58.095 0.0131384
58.135 0.00711712
58.175 0.0123364
58.215 -0.0175331
58.255 0.0200396
58.295 0.0135634
58.335 0.0300044
58.375 0.0221896
58.415 0.0210355
58.455 0.0193514
58.495 0.0124851
58.535 0.010223
58.575 0.0136566
58.615 0.01543
58.655 0.0104398
58.695 0.0335416
58.735 -0.00295752
58.775 0.000663189
58.815 0.0173639
58.855 0.0097177
58.895 0.0179441
58.935 0.0230023
58.975 0.0223592
59.015 0.00481401
59.055 -0.0074451
59.095 0.0096741
59.135 -0.00624389
59.175 -0.00998765
59.215 0.0118149
59.255 0.00585736
59.295 0.00752382
59.335 0.0133253
59.375 0.0171159
59.415 -0.00330818
59.455 0.0154381
59.495 -0.0087349
59.535 0.0108264
59.575 0.00190389
59.615 -0.000283901
59.655 -0.00993906
59.695 0.00932167
59.735 0.010961
59.775 0.0112921
59.815 0.0198587
59.855 -0.0051063
59.895 0.0120761
59.935 0.0172228
59.975 0.0109151
60.015 0.000240143
60.055 0.00986052
60.095 -0.00108951
60.135 0.0092241
60.175 0.0106829
60.215 0.0247359
60.255 0.0110513
60.295 -0.00165462
60.335 -0.00167049
60.375 0.030745
60.415 0.00242632
60.455 0.00578554
60.495 -0.00456164
60.535 0.0161072
60.575 0.0126611
60.615 0.0058833
60.655 0.00351647
60.695 0.000152796
60.735 0.00647293
60.775 -0.00657181
60.815 0.00430262
60.855 0.0102443
60.895 0.0141404
60.935 0.0100927
60.975 0.00557711
61.015 0.00632183
61.055 0.0102027
61.095 0.0143647
61.135 0.0176251
61.175 0.023506
61.215 0.0121577
61.255 0.0335398
61.295 0.0226475
61.335 0.0233997
61.375 0.0486453
61.415 0.085716
61.455 0.0823927
61.495 0.153863
61.535 0.198415
61.575 0.231266
61.615 0.249945
61.655 0.263081
61.695 0.253723
61.735 0.202282
61.775 0.199068
61.815 0.134269
61.855 0.116617
61.895 0.0760911
61.935 0.0279369
61.975 0.0327717
62.015 0.0164465
62.055 0.00322173
62.095 0.0223369
62.135 0.00792406
62.175 0.0225535
62.215 0.0138956
62.255 0.0156943
62.295 0.0207837
62.335 0.0199463
62.375 0.0203611
62.415 0.0281272
62.455 0.0230096
62.495 0.040835
62.535 0.0387011
62.575 0.0482981
62.615 0.0461895
62.655 0.0896897
62.695 0.0867439
62.735 0.0715747
62.775 0.10122
62.815 0.0717978
62.855 0.0813871
62.895 0.0706694
62.935 0.0612835
62.975 0.0327747
63.015 0.035934
63.055 0.00400594
63.095 0.0219365
63.135 0.00749089
63.175 -0.00282112
63.215 0.0107549
63.255 0.0157794
63.295 0.0162616
63.335 0.00980435
63.375 0.00286845
63.415 0.011986
63.455 -0.0136011
63.495 0.00200608
63.535 0.00252075
63.575 0.000909687
63.615 0.0113652
63.655 0.00832219
63.695 -0.00843929
63.735 0.00664001
63.775 0.00112144
63.815 0.00969535
63.855 0.00732408
63.895 0.00097962
63.935 0.00257368
63.975 -0.0024574
64.015 0.0120507
64.055 -0.0030301
64.095 0.00489946
64.135 0.00739333
64.175 -0.0107784
64.215 0.00368049
64.255 -0.00448645
64.295 0.00620075
64.335 0.00743798
64.375 -0.00574687
64.415 -0.00780963
64.455 0.00820613
64.495 0.00591905
64.535 -0.00192368
64.575 -0.0103438
64.615 0.00317375
64.655 0.00520066
64.695 -0.00515581
64.735 0.0145896
64.775 -0.00715608
64.815 0.000469968
64.855 0.0127261
64.895 -0.00429393
64.935 -0.00131067
64.975 0.00355516
65.015 -0.0112928
65.055 0.00303603
65.095 0.00959662
65.135 -0.000218483
65.175 -0.00754138
65.215 -0.0048704
65.255 0.0108749
65.295 0.00518805
65.335 0.0151259
65.375 -0.0128249
65.415 -0.0119717
65.455 0.00579492
65.495 0.00651135
65.535 0.00285939
65.575 0.0148615
65.615 0.00273269
65.655 0.0120259
65.695 0.00394844
65.735 -0.00383315
65.775 -0.00354318
65.815 -0.00646724
65.855 -0.0165237
65.895 -0.00274645
65.935 0.00864598
65.975 0.0144961
66.015 0.00559638
66.055 0.0332952
66.095 -0.00560142
66.135 0.00192531
66.175 0.00983195
66.215 -0.00711831
66.255 0.00393824
66.295 0.00732784
66.335 0.0141667
66.375 0.0408664
66.415 0.0407316
66.455 0.0338745
66.495 0.0737654
66.535 0.0898129
66.575 0.110425
66.615 0.127166
66.655 0.139493
66.695 0.112341
66.735 0.0859907
66.775 0.0968566
66.815 0.0661306
66.855 0.0610203
66.895 0.0497221
66.935 0.0394357
66.975 0.0231472
67.015 0.0250374
67.055 0.00646169
67.095 -0.00269691
67.135 0.00402089
67.175 0.00340687
67.215 -0.00147464
67.255 0.00379654
67.295 0.00157367
67.335 -0.00583865
67.375 0.0130904
67.415 0.00774961
67.455 0.00906839
67.495 0.00400501
67.535 0.00506798
67.575 0.000744543
67.615 0.00590577
67.655 0.00648841
67.695 0.00497055
67.735 0.0212254
67.775 -0.00176787
67.815 -0.000899934
67.855 -0.00846294
67.895 0.00391039
67.935 0.0108984
67.975 0.0101306
68.015 0.00979042
68.055 0.0472727
68.095 0.0167443
68.135 0.0220333
68.175 0.0211042
68.215 0.0176983
68.255 0.022929
68.295 0.0161277
68.335 0.0198059
68.375 0.00490343
68.415 0.0195341
68.455 -0.00196794
68.495 0.00190862
68.535 0.014715
68.575 0.00536105
68.615 0.00322333
68.655 -0.00399181
68.695 0.00951518
68.735 0.0173954
68.775 0.00584137
68.815 0.00631445
68.855 -0.00114634
68.895 0.0127609
68.935 0.0151282
68.975 -0.00737517
69.015 0.00249662
69.055 0.00132099
69.095 0.00337486
69.135 0.00225545
69.175 0.00594482
69.215 0.00407352
69.255 0.00838299
69.295 0.00204388
69.335 0.0154931
69.375 -0.00375522
69.415 0.00815317
69.455 0.0238494
69.495 -0.0095105
69.535 -0.000278258
69.575 0.00895432
69.615 0.0229897
69.655 -0.00293163
69.695 -0.0110276
69.735 0.00310171
69.775 -0.00192053
69.815 0.00747043
69.855 0.00444614
69.895 0.00308226
69.935 0.00457835
69.975 0.0033321
70.015 -0.0100185
70.055 -0.00269084
70.095 0.00731253
70.135 -0.00842801
70.175 -0.0150822
70.215 0.00186898
70.255 -0.00576437
70.29 -0.0155967