File: data/xrd/xy/2018-06-26T16_01_41.558851+00_00_LBL.xy
'Id: "" Comment: "Integrate frame EtNH3PbI30_00_001.gfrmwith cursor Wedge Cursor #3" Operator: "UC Berkeley" Anode: "Co" Scantype: "TwoTheta" TimePerStep: "300"
14.48 -0.030146
14.52 0.0201641
14.56 -0.0287489
14.6 0.00566924
14.64 0.0431459
14.68 5.06709e-05
14.72 0.0331278
14.76 0.063703
14.8 0.0712179
14.84 -0.00108913
14.88 0.0579872
14.92 0.0864724
14.96 0.0975524
15 0.0641073
15.04 0.0571533
15.08 0.0790364
15.12 0.0809574
15.16 0.0711848
15.2 -0.0280437
15.24 0.0275431
15.28 0.0881705
15.32 0.126101
15.36 0.0637084
15.4 0.0416532
15.44 0.0270942
15.48 0.0631456
15.52 0.101977
15.56 0.0512154
15.6 0.0211346
15.64 0.0522641
15.68 0.0159474
15.72 0.0232797
15.76 0.0319749
15.8 0.0580312
15.84 0.121651
15.88 0.038369
15.92 0.0543102
15.96 0.0388338
16 0.0520224
16.04 0.0529928
16.08 0.0278001
16.12 0.0791335
16.16 0.0962728
16.2 -0.0150486
16.24 0.0590445
16.28 0.0345692
16.32 0.0878468
16.36 0.0732063
16.4 0.0556107
16.44 0.0920841
16.48 0.0495867
16.52 0.0475559
16.56 0.020618
16.6 0.0625459
16.64 0.00675412
16.68 0.0731659
16.72 0.0101752
16.76 0.0484595
16.8 0.0495216
16.84 0.00528661
16.88 0.0364729
16.92 0.0387826
16.96 0.0423284
17 0.0229426
17.04 0.029164
17.08 0.0480504
17.12 0.0673929
17.16 0.0484186
17.2 0.112729
17.24 0.0431653
17.28 0.0364995
17.32 0.0260087
17.36 0.0666055
17.4 0.0253843
17.44 0.0309147
17.48 0.033384
17.52 -0.0132603
17.56 0.0528217
17.6 0.0597442
17.64 0.00842028
17.68 0.038897
17.72 0.0433389
17.76 0.054359
17.8 0.0239087
17.84 0.061045
17.88 0.101463
17.92 0.0418915
17.96 -0.0121865
18 0.0174624
18.04 0.0387119
18.08 -0.021015
18.12 0.0287237
18.16 0.0131421
18.2 0.0340059
18.24 0.037188
18.28 0.0267644
18.32 0.0759282
18.36 0.0675395
18.4 0.054151
18.44 0.0958616
18.48 0.0442652
18.52 0.0685473
18.56 0.0636155
18.6 0.042346
18.64 0.00548444
18.68 -0.00868649
18.72 0.0321373
18.76 0.0650023
18.8 0.00874068
18.84 0.0309631
18.88 0.0473251
18.92 0.0525743
18.96 0.0616329
19 -0.0273405
19.04 0.0776565
19.08 0.0211538
19.12 0.00839593
19.16 0.00746969
19.2 0.07362
19.24 0.101473
19.28 0.0430551
19.32 0.0505731
19.36 0.0968821
19.4 0.0383654
19.44 0.0676563
19.48 0.0569172
19.52 0.0403988
19.56 0.0917355
19.6 0.0451768
19.64 -0.0035097
19.68 0.0103984
19.72 0.0425565
19.76 0.0203296
19.8 0.0435647
19.84 0.0466255
19.88 0.0738383
19.92 0.0127319
19.96 0.0407313
20 0.0671224
20.04 0.0504592
20.08 0.0867192
20.12 0.0913213
20.16 0.0561495
20.2 0.0924748
20.24 0.0273885
20.28 0.0470007
20.32 0.0104122
20.36 0.0620704
20.4 0.0466819
20.44 0.0647993
20.48 -0.000410186
20.52 0.100113
20.56 0.0470484
20.6 0.0315019
20.64 0.055891
20.68 0.0177322
20.72 0.0505501
20.76 0.0190368
20.8 0.0339657
20.84 0.110619
20.88 0.04936
20.92 0.0821516
20.96 0.0477336
21 0.0822502
21.04 0.0427417
21.08 0.0688151
21.12 0.0446969
21.16 0.0631028
21.2 0.0587973
21.24 0.0535548
21.28 0.0126481
21.32 0.0709735
21.36 0.059138
21.4 0.0650094
21.44 0.0464151
21.48 0.0663957
21.52 0.107446
21.56 0.0743691
21.6 0.054002
21.64 0.0214942
21.68 0.0549622
21.72 0.110299
21.76 0.043156
21.8 0.0754703
21.84 0.077441
21.88 0.0506207
21.92 0.0512741
21.96 0.0380168
22 0.0676014
22.04 0.0933425
22.08 0.0775021
22.12 0.0317415
22.16 0.106322
22.2 0.0913498
22.24 0.117061
22.28 0.139507
22.32 0.0485325
22.36 0.0970948
22.4 0.0694209
22.44 0.0778556
22.48 0.0412703
22.52 0.0911344
22.56 0.0641074
22.6 0.0999175
22.64 0.060709
22.68 0.0935837
22.72 0.0697378
22.76 0.111909
22.8 0.0822049
22.84 0.10541
22.88 0.0843268
22.92 0.103979
22.96 0.0767037
23 0.0680561
23.04 0.0957447
23.08 0.0906461
23.12 0.0829666
23.16 0.0745379
23.2 0.161584
23.24 0.0521713
23.28 0.133041
23.32 0.136922
23.36 0.136587
23.4 0.0655264
23.44 0.0537506
23.48 0.0876081
23.52 0.16309
23.56 0.136928
23.6 0.130698
23.64 0.205362
23.68 0.137438
23.72 0.1576
23.76 0.0484284
23.8 0.118541
23.84 0.0634225
23.88 0.0888268
23.92 0.0842959
23.96 0.0744503
24 0.152115
24.04 0.11372
24.08 0.108827
24.12 0.11404
24.16 0.0813702
24.2 0.132954
24.24 0.180898
24.28 0.124714
24.32 0.122023
24.36 0.0890789
24.4 0.121119
24.44 0.131992
24.48 0.132429
24.52 0.0996974
24.56 0.117849
24.6 0.196171
24.64 0.137176
24.68 0.133277
24.72 0.160723
24.76 0.111023
24.8 0.135026
24.84 0.140983
24.88 0.139478
24.92 0.12408
24.96 0.15677
25 0.152844
25.04 0.146222
25.08 0.280922
25.12 0.232885
25.16 0.301617
25.2 0.285289
25.24 0.287719
25.28 0.28912
25.32 0.291766
25.36 0.291078
25.4 0.269338
25.44 0.287377
25.48 0.352121
25.52 0.367199
25.56 0.42046
25.6 0.358828
25.64 0.435553
25.68 0.551494
25.72 0.638468
25.76 0.713927
25.8 0.83097
25.84 1.01109
25.88 1.22492
25.92 1.5453
25.96 1.90589
26 2.3865
26.04 2.74732
26.08 3.21798
26.12 3.21858
26.16 3.30111
26.2 3.06458
26.24 2.58167
26.28 2.25326
26.32 1.67807
26.36 1.29126
26.4 0.990066
26.44 0.746623
26.48 0.567122
26.52 0.501217
26.56 0.377965
26.6 0.281021
26.64 0.290144
26.68 0.211667
26.72 0.189767
26.76 0.149116
26.8 0.180713
26.84 0.143639
26.88 0.1258
26.92 0.109955
26.96 0.11205
27 0.105439
27.04 0.129704
27.08 0.0965977
27.12 0.12969
27.16 0.0706513
27.2 0.0546186
27.24 0.0887265
27.28 0.147559
27.32 0.0548749
27.36 0.064778
27.4 0.0864218
27.44 0.0890328
27.48 0.0630483
27.52 0.0453108
27.56 0.0563309
27.6 0.0524322
27.64 0.0672118
27.68 0.0387482
27.72 0.0529192
27.76 0.0229011
27.8 0.0429126
27.84 -0.00860467
27.88 0.0159652
27.92 0.0653131
27.96 0.0505645
28 0.0160719
28.04 0.0445182
28.08 0.0192167
28.12 0.0273855
28.16 0.0249555
28.2 0.0762668
28.24 0.0543488
28.28 0.0098484
28.32 0.0169354
28.36 0.0428964
28.4 0.0551939
28.44 0.0360228
28.48 0.0309453
28.52 0.0376106
28.56 0.0380624
28.6 0.0447329
28.64 0.0406545
28.68 0.0265478
28.72 0.0368687
28.76 0.102308
28.8 0.0739046
28.84 0.0416177
28.88 0.0446705
28.92 0.0548939
28.96 0.0545388
29 0.0228127
29.04 0.0188612
29.08 0.0581214
29.12 0.0422151
29.16 0.015843
29.2 0.0151963
29.24 0.037164
29.28 0.0479529
29.32 -0.00447537
29.36 0.0518866
29.4 0.0346549
29.44 0.0393358
29.48 0.0175779
29.52 0.00686809
29.56 0.0121082
29.6 0.0355293
29.64 0.0408145
29.68 0.0359549
29.72 0.0434086
29.76 0.0196254
29.8 0.0729338
29.84 0.0497125
29.88 0.0572447
29.92 0.136093
29.96 0.183681
30 0.181991
30.04 0.29247
30.08 0.353932
30.12 0.483316
30.16 0.440437
30.2 0.380245
30.24 0.376967
30.28 0.298231
30.32 0.281721
30.36 0.16684
30.4 0.0636663
30.44 0.0903896
30.48 0.0310355
30.52 0.0599181
30.56 -0.00649758
30.6 0.0616287
30.64 0.0333467
30.68 0.0214231
30.72 0.00412652
30.76 0.035782
30.8 0.0262585
30.84 -0.0112108
30.88 0.00261429
30.92 0.04857
30.96 0.0359409
31 0.00595998
31.04 0.0413841
31.08 0.0230266
31.12 0.0224022
31.16 0.0229209
31.2 -0.00697241
31.24 0.0396871
31.28 0.0312566
31.32 -0.00862046
31.36 0.00150439
31.4 0.0291864
31.44 0.0499725
31.48 0.0313425
31.52 0.0133044
31.56 0.0234177
31.6 0.0479299
31.64 0.0207201
31.68 0.0172481
31.72 0.0165675
31.76 0.0266322
31.8 0.0097625
31.84 -0.022981
31.88 0.0268238
31.92 0.021545
31.96 0.0193233
32 0.0376371
32.04 0.0410086
32.08 -0.0128425
32.12 0.0203966
32.16 0.0166024
32.2 0.0161042
32.24 0.0264032
32.28 0.0251408
32.32 -0.00324307
32.36 0.0464479
32.4 0.0111007
32.44 0.0241144
32.48 0.0215716
32.52 0.0233844
32.56 0.0104268
32.6 0.0354321
32.64 0.0339353
32.68 0.0587958
32.72 0.0554533
32.76 0.0229512
32.8 0.0255697
32.84 0.032189
32.88 0.0106829
32.92 -0.00240556
32.96 0.0475084
33 0.0312629
33.04 0.0115376
33.08 0.0210542
33.12 0.0174283
33.16 -0.00264768
33.2 -0.000698681
33.24 0.0134832
33.28 0.0151578
33.32 -0.0108412
33.36 0.00655156
33.4 0.0080429
33.44 0.0189738
33.48 -0.0151556
33.52 0.0364309
33.56 0.013381
33.6 -0.0047433
33.64 -0.0178274
33.68 0.0377244
33.72 0.0249081
33.76 0.0241965
33.8 0.0128222
33.84 0.0143348
33.88 0.0127086
33.92 0.0114707
33.96 0.0306368
34 0.00363435
34.04 0.000600527
34.08 -0.00352567
34.12 0.0259562
34.16 0.0182267
34.2 0.0278933
34.24 0.0212935
34.28 0.00166137
34.32 0.0218282
34.36 0.00939728
34.4 0.018636
34.44 0.0268887
34.48 0.0541671
34.52 0.0570105
34.56 0.0548268
34.6 0.0657216
34.64 0.127315
34.68 0.152595
34.72 0.163901
34.76 0.182485
34.8 0.196506
34.84 0.208268
34.88 0.230604
34.92 0.173241
34.96 0.157715
35 0.116003
35.04 0.0933858
35.08 0.0888052
35.12 0.087596
35.16 0.0374377
35.2 0.0468238
35.24 0.0122774
35.28 0.0449977
35.32 0.0255623
35.36 0.0114116
35.4 -0.00987975
35.44 0.00154875
35.48 0.013035
35.52 0.00456237
35.56 0.0206868
35.6 0.0170391
35.64 0.0125483
35.68 -0.00380458
35.72 0.00623522
35.76 -0.0202348
35.8 0.0149391
35.84 0.00295831
35.88 0.000467574
35.92 -0.0192805
35.96 -0.00530774
36 -0.00657916
36.04 0.00814839
36.08 0.0136828
36.12 0.028688
36.16 0.0223973
36.2 0.0339191
36.24 0.0737752
36.28 0.119307
36.32 0.129166
36.36 0.141741
36.4 0.186275
36.44 0.181192
36.48 0.170644
36.52 0.0826757
36.56 0.0789491
36.6 0.0689429
36.64 0.0552986
36.68 0.042019
36.72 0.00644308
36.76 0.0172708
36.8 0.0111686
36.84 0.009812
36.88 -0.00759607
36.92 0.00708204
36.96 0.0312883
37 0.0125284
37.04 0.0419895
37.08 0.0110854
37.12 0.035196
37.16 0.0125871
37.2 0.0877051
37.24 0.0666345
37.28 0.109553
37.32 0.124901
37.36 0.183875
37.4 0.199391
37.44 0.301759
37.48 0.350164
37.52 0.418869
37.56 0.526802
37.6 0.620927
37.64 0.630046
37.68 0.566681
37.72 0.485256
37.76 0.381056
37.8 0.280045
37.84 0.209295
37.88 0.163628
37.92 0.107418
37.96 0.0918235
38 0.0791176
38.04 0.0533199
38.08 0.0354644
38.12 0.0298365
38.16 0.0430595
38.2 0.0411999
38.24 0.00752958
38.28 0.0451995
38.32 0.0323909
38.36 0.0689329
38.4 0.0430769
38.44 0.0535183
38.48 0.0639968
38.52 0.103324
38.56 0.0776512
38.6 0.0756334
38.64 0.0918951
38.68 0.0916439
38.72 0.0987588
38.76 0.126855
38.8 0.114887
38.84 0.142115
38.88 0.153808
38.92 0.154639
38.96 0.171962
39 0.215261
39.04 0.271582
39.08 0.282675
39.12 0.332274
39.16 0.32936
39.2 0.391146
39.24 0.403368
39.28 0.505091
39.32 0.517377
39.36 0.55344
39.4 0.559171
39.44 0.561687
39.48 0.622148
39.52 0.575975
39.56 0.580435
39.6 0.581741
39.64 0.574726
39.68 0.512885
39.72 0.517428
39.76 0.474985
39.8 0.378453
39.84 0.369815
39.88 0.339937
39.92 0.311234
39.96 0.27461
40 0.228042
40.04 0.186695
40.08 0.179148
40.12 0.145022
40.16 0.0993263
40.2 0.0854115
40.24 0.0653338
40.28 0.0600145
40.32 0.0519171
40.36 0.0482768
40.4 0.0574595
40.44 0.035053
40.48 0.0382211
40.52 0.0446383
40.56 0.0496839
40.6 0.0567154
40.64 0.0645216
40.68 0.0632216
40.72 0.0387486
40.76 0.0825879
40.8 0.0800339
40.84 0.0729627
40.88 0.0652545
40.92 0.0477794
40.96 0.050969
41 0.0291558
41.04 0.0149794
41.08 0.029483
41.12 0.0118431
41.16 -0.0114831
41.2 0.0151226
41.24 0.0142501
41.28 0.0119215
41.32 0.0305257
41.36 0.0132448
41.4 0.0483134
41.44 0.0350422
41.48 0.0226039
41.52 0.0167231
41.56 0.0171886
41.6 0.000968789
41.64 0.0105274
41.68 0.0183236
41.72 0.0276153
41.76 0.0543977
41.8 0.0134608
41.84 0.0300108
41.88 0.0125845
41.92 0.0303022
41.96 0.0238665
42 -0.00595597
42.04 0.00809426
42.08 0.0192627
42.12 0.0328331
42.16 0.0142431
42.2 -0.00814635
42.24 0.0190534
42.28 0.0304932
42.32 0.0192748
42.36 0.00658055
42.4 0.0135061
42.44 0.0368231
42.48 0.0336029
42.52 0.0241176
42.56 0.0284644
42.6 0.0539714
42.64 0.0152336
42.68 0.00964496
42.72 -0.0104463
42.76 0.0146744
42.8 0.0294893
42.84 0.0133444
42.88 0.0286327
42.92 0.0276206
42.96 0.00448777
43 0.0303787
43.04 0.0251691
43.08 0.0078356
43.12 -0.000512769
43.16 0.0145209
43.2 0.000853087
43.24 -0.00395089
43.28 0.0126236
43.32 0.0326142
43.36 -0.00354862
43.4 0.0263989
43.44 0.0291783
43.48 0.0100805
43.52 0.00933815
43.56 0.0159454
43.6 0.0322925
43.64 0.059893
43.68 0.0268133
43.72 0.0362621
43.76 0.0108524
43.8 0.0370317
43.84 0.0225574
43.88 0.0234983
43.92 0.00829675
43.96 0.00319103
44 0.0198711
44.04 0.0439865
44.08 0.0503708
44.12 0.0386283
44.16 0.00302187
44.2 0.0109285
44.24 0.0200939
44.28 -0.0013098
44.32 0.0120121
44.36 0.0188919
44.4 0.00945635
44.44 0.0268669
44.48 0.0191888
44.52 0.0216523
44.56 0.0216809
44.6 0.0298992
44.64 0.0559608
44.68 0.0537986
44.72 0.0707983
44.76 0.0867484
44.8 0.0799177
44.84 0.0283532
44.88 0.0806237
44.92 0.0995957
44.96 0.0853302
45 0.0731706
45.04 0.0313654
45.08 0.0274587
45.12 0.0421009
45.16 0.0335195
45.2 0.0209807
45.24 0.0443203
45.28 0.0377714
45.32 0.0364823
45.36 0.0312404
45.4 0.0196685
45.44 0.0342008
45.48 0.0110107
45.52 0.00728997
45.56 0.00684203
45.6 0.00520684
45.64 0.0217862
45.68 0.0171815
45.72 0.0239862
45.76 0.0236576
45.8 0.022703
45.84 0.0289333
45.88 0.0183456
45.92 0.0171091
45.96 0.034874
46 0.0316087
46.04 0.0652806
46.08 0.0527459
46.12 0.0464618
46.16 0.0579595
46.2 0.0269894
46.24 0.074033
46.28 0.00456727
46.32 0.0422744
46.36 -0.00133458
46.4 0.00750047
46.44 0.00529487
46.48 0.004679
46.52 0.0256371
46.56 0.00364153
46.6 0.0164379
46.64 0.0250378
46.68 0.0255177
46.72 -0.0071286
46.76 0.0132603
46.8 0.0293469
46.84 0.0256226
46.88 -0.0129974
46.92 0.00855677
46.96 0.0126833
47 -0.00291112
47.04 0.00798857
47.08 0.00461064
47.12 -0.00834712
47.16 0.0254899
47.2 0.0217943
47.24 -6.62755e-05
47.28 0.00912889
47.32 0.0079898
47.36 0.0193211
47.4 0.0289083
47.44 0.0381536
47.48 0.0260827
47.52 0.0159975
47.56 0.0272721
47.6 0.0676604
47.64 0.0427936
47.68 0.0500985
47.72 0.0604447
47.76 0.0620828
47.8 0.0385083
47.84 0.0311839
47.88 0.0570809
47.92 0.0226195
47.96 0.0362344
48 0.0394345
48.04 0.0460337
48.08 0.0478543
48.12 0.0416717
48.16 0.0556802
48.2 0.0878825
48.24 0.116644
48.28 0.160132
48.32 0.172334
48.36 0.176119
48.4 0.147927
48.44 0.126565
48.48 0.110215
48.52 0.0625322
48.56 0.0400252
48.6 0.0453727
48.64 0.0501981
48.68 0.0224477
48.72 0.0070815
48.76 0.0220918
48.8 -0.00379693
48.84 0.00479129
48.88 0.0210655
48.92 0.0207584
48.96 0.015776
49 0.0422008
49.04 0.0395626
49.08 0.0439858
49.12 0.0303156
49.16 0.0472637
49.2 0.0569294
49.24 0.0737404
49.28 0.0553534
49.32 0.057727
49.36 0.0634607
49.4 0.044604
49.44 0.0416471
49.48 0.035547
49.52 0.0334007
49.56 0.0147077
49.6 0.023041
49.64 0.00735678
49.68 0.00713218
49.72 0.0163775
49.76 0.00978922
49.8 -0.00211614
49.84 0.0155322
49.88 -0.000718162
49.92 -0.011402
49.96 0.018875
50 0.0160304
50.04 0.012136
50.08 0.013299
50.12 0.000502146
50.16 0.0188312
50.2 0.0433702
50.24 0.0311662
50.28 0.0471955
50.32 0.0940925
50.36 0.115871
50.4 0.135638
50.44 0.136988
50.48 0.153453
50.52 0.120466
50.56 0.096288
50.6 0.070641
50.64 0.0276363
50.68 0.00602393
50.72 0.00677068
50.76 0.0115266
50.8 -0.00236061
50.84 0.01106
50.88 -0.0126712
50.92 0.000198619
50.96 9.47927e-05
51 0.00441055
51.04 0.00952651
51.08 -0.00790815
51.12 0.00598053
51.16 0.00291099
51.2 -0.00744791
51.24 -0.003387
51.28 0.0192295
51.32 -0.00454753
51.36 0.00932599
51.4 -0.0132716
51.44 -0.00158189
51.48 -0.00705399
51.52 -0.00838666
51.56 -0.00841105
51.6 0.00351618
51.64 0.0162178
51.68 -0.0144697
51.72 0.00938061
51.76 0.00234904
51.8 0.012584
51.84 0.0191023
51.88 0.0342068
51.92 0.0442979
51.96 0.0439247
52 0.0570824
52.04 0.0525465
52.08 0.0338577
52.12 0.0636102
52.16 0.038097
52.2 0.0368441
52.24 0.0316175
52.28 0.0404077
52.32 0.01768
52.36 0.0397128
52.4 0.0230196
52.44 0.0183413
52.48 0.0153765
52.52 0.0132385
52.56 0.010759
52.6 -0.00809044
52.64 0.0105868
52.68 0.00695875
52.72 0.00863445
52.76 0.00493504
52.8 0.00255649
52.84 0.00458873
52.88 -0.0131244
52.92 0.00491128
52.96 0.00425783
53 -0.000450229
53.04 -0.0101324
53.08 0.00338388
53.12 -0.00549481
53.16 -0.0120556
53.2 0.00755896
53.24 0.0200678
53.28 0.00861583
53.32 0.0139305
53.36 0.0129968
53.4 0.0217623
53.44 0.00857149
53.48 0.00261771
53.52 0.0333371
53.56 0.034938
53.6 0.0375371
53.64 0.063837
53.68 0.0328516
53.72 0.072019
53.76 0.0692602
53.8 0.091194
53.84 0.105081
53.88 0.109357
53.92 0.104996
53.96 0.0997389
54 0.086934
54.04 0.077346
54.08 0.0681387
54.12 0.0630653
54.16 0.0371709
54.2 0.0415993
54.24 0.0326036
54.28 0.0272435
54.32 0.0313902
54.36 0.0205515
54.4 0.0154843
54.44 0.0240119
54.48 0.0132789
54.52 0.0368661
54.56 0.00656223
54.6 0.0128653
54.64 0.0187773
54.68 0.00525907
54.72 0.0380308
54.76 0.0362601
54.8 0.0369001
54.84 0.0258053
54.88 0.0402036
54.92 0.0214024
54.96 0.0544251
55 0.0781711
55.04 0.0738637
55.08 0.115606
55.12 0.100806
55.16 0.120249
55.2 0.108021
55.24 0.139301
55.28 0.155349
55.32 0.167772
55.36 0.178027
55.4 0.181104
55.44 0.19601
55.48 0.190638
55.52 0.194395
55.56 0.192988
55.6 0.203529
55.64 0.189715
55.68 0.175678
55.72 0.156437
55.76 0.160912
55.8 0.145108
55.84 0.156482
55.88 0.102105
55.92 0.0949645
55.96 0.0906198
56 0.0913276
56.04 0.0700354
56.08 0.0623714
56.12 0.059778
56.16 0.0426791
56.2 0.0274403
56.24 0.0357454
56.28 0.0142951
56.32 0.00586311
56.36 0.00133642
56.4 0.00741745
56.44 0.0135048
56.48 0.0108888
56.52 0.0004541
56.56 0.0150519
56.6 0.0213562
56.64 0.0197426
56.68 0.0166998
56.72 0.0151337
56.76 -0.0185038
56.8 0.00286147
56.84 0.0106159
56.88 0.0181926
56.92 0.027257
56.96 0.0124083
57 0.0131049
57.04 0.0145833
57.08 0.0294581
57.12 0.0265613
57.16 0.00521207
57.2 0.0275116
57.24 0.0277458
57.28 0.0230306
57.32 0.0217731
57.36 0.0358166
57.4 0.00853135
57.44 0.0375803
57.48 0.0373341
57.52 0.0376128
57.56 0.0272999
57.6 0.0362978
57.64 0.0618067
57.68 0.0290328
57.72 0.0362524
57.76 0.044583
57.8 0.0118285
57.84 0.0493424
57.88 0.0400753
57.92 0.056398
57.96 0.0305266
58 0.0609627
58.04 0.0675415
58.08 0.0355994
58.12 0.056862
58.16 0.0596626
58.2 0.0742157
58.24 0.0295193
58.28 0.0335781
58.32 0.0408088
58.36 0.0351562
58.4 0.019372
58.44 0.0226441
58.48 0.0134509
58.52 0.0427667
58.56 0.0268702
58.6 0.0155109
58.64 0.00125562
58.68 0.00769367
58.72 0.0241013
58.76 0.00349983
58.8 0.00588559
58.84 0.00810041
58.88 0.00438269
58.92 -0.00441741
58.96 0.000350517
59 -0.0126593
59.04 0.00471918
59.08 0.011213
59.12 0.00119066
59.16 -6.93452e-05
59.2 -0.000243299
59.24 0.0188331
59.28 0.00630572
59.32 0.0168213
59.36 0.0214684
59.4 0.0292924
59.44 0.0223888
59.48 0.0169218
59.52 -0.00942302
59.56 0.00958884
59.6 0.0370634
59.64 0.0337497
59.68 0.0202776
59.72 0.0281333
59.76 -0.0025865
59.8 0.0186367
59.84 0.00970538
59.88 0.037259
59.92 0.00705558
59.96 0.0105125
60 0.0252629
60.04 0.00852153
60.08 0.0211492
60.12 0.014058
60.16 0.0184869
60.2 0.0254632
60.24 0.0241166
60.28 -0.0167842
60.32 -0.00146424
60.36 0.000162216
60.4 0.0213675
60.44 0.0289514
60.48 0.0228501
60.52 0.0262677
60.56 0.0290302
60.6 0.0200023
60.64 0.0105243
60.68 0.00362809
60.72 0.0249443
60.76 0.0321628
60.8 -0.00212686
60.84 0.00174944
60.88 0.033066
60.92 0.0559343
60.96 0.0143796
61 0.0311997
61.04 0.0339853
61.08 0.0243627
61.12 0.0112772
61.16 0.0255932
61.2 0.0424647
61.24 0.0274725
61.28 0.0260815
61.32 0.0410824
61.36 0.0419138
61.4 0.0284667
61.44 0.034131
61.48 0.0330209
61.52 0.0443675
61.56 0.0321154
61.6 0.0585871
61.64 0.0350768
61.68 0.0283503
61.72 0.0443336
61.76 0.0330868
61.8 0.047654
61.84 0.046144
61.88 0.080913
61.92 0.0955676
61.96 0.0847464
62 0.104632
62.04 0.0950337
62.08 0.109206
62.12 0.111724
62.16 0.117068
62.2 0.0883171
62.24 0.0925789
62.28 0.11848
62.32 0.107626
62.36 0.13111
62.4 0.11995
62.44 0.132312
62.48 0.112958
62.52 0.128458
62.56 0.13943
62.6 0.117008
62.64 0.111384
62.68 0.103557
62.72 0.150901
62.76 0.144372
62.8 0.150647
62.84 0.178907
62.88 0.160113
62.92 0.137107
62.96 0.129312
63 0.127773
63.04 0.147607
63.08 0.111732
63.12 0.0801634
63.16 0.0736447
63.2 0.083523
63.24 0.0723792
63.28 0.0500011
63.32 0.0577402
63.36 0.0287587
63.4 0.0226233
63.44 0.0479721
63.48 0.0379579
63.52 0.0150635
63.56 0.0408588
63.6 0.0161594
63.64 0.0192613
63.68 0.0239546
63.72 -0.00441854
63.76 0.0156835
63.8 0.0216129
63.84 0.0123162
63.88 0.0206699
63.92 0.0272181
63.96 0.0255695
64 0.0247755
64.04 0.0266959
64.08 0.02725
64.12 0.0100495
64.16 -0.00146245
64.2 0.0136587
64.24 0.0241311
64.28 -0.00739182
64.32 0.0192326
64.36 0.0116859
64.4 0.00603354
64.44 0.00832514
64.48 0.00512015
64.52 0.00641109
64.56 0.0233416
64.6 0.0103593
64.64 0.00803238
64.68 0.014194
64.72 0.00875753
64.76 0.01826
64.8 0.0225637
64.84 0.00936937
64.88 0.0176228
64.92 0.0290804
64.96 0.0231482
65 0.0218198
65.04 0.0405838
65.08 0.0355816
65.12 0.066334
65.16 0.0389496
65.2 0.0464624
65.24 0.0399574
65.28 0.0321404
65.32 0.0387164
65.36 0.0369917
65.4 0.0335555
65.44 0.0279264
65.48 0.0272469
65.52 0.0256292
65.56 0.0173915
65.6 0.0301676
65.64 0.0296647
65.68 0.0201067
65.72 0.00193673
65.76 0.0134519
65.8 0.0139867
65.84 0.0317085
65.88 -0.00678096
65.92 0.0161496
65.96 -0.0034178
66 -0.00467082
66.04 0.00839943
66.08 0.00648349
66.12 0.00959858
66.16 0.00126314
66.2 0.00122413
66.24 0.015096
66.28 0.0121656
66.32 -0.00862822
66.36 -0.0126301
66.4 -0.00674855
66.44 -0.00208991
66.48 0.00721748
66.52 0.000363711
66.56 0.0082686
66.6 0.0018558
66.64 -0.0115451
66.68 0.00658764
66.72 0.0107451
66.76 0.00343482
66.8 0.00851011
66.84 -0.00721078
66.88 0.0094527
66.92 0.0120357
66.96 -0.00225475
67 0.0117217
67.04 -0.000422586
67.08 0.00354548
67.12 -4.76681e-05
67.16 -0.00202142
67.2 0.00426147
67.24 0.01455
67.28 -0.00366562
67.32 0.00704538
67.36 0.0129569
67.4 -0.0141925
67.44 -0.00210283
67.48 0.00158472
67.52 0.0037322
67.56 -0.000722221
67.6 -0.000971998
67.64 0.00515675
67.68 0.0107254
67.72 -0.00625186
67.76 -0.00394735
67.8 0.00931467
67.84 0.00680023
67.88 0.00265573
67.92 0.0291236
67.96 0.0226942
68 0.0399833
68.04 0.0098535
68.08 0.0456973
68.12 0.0160701
68.16 0.0298521
68.2 0.0185602
68.24 0.0131284
68.28 0.0538022
68.32 0.0245733
68.36 0.0139246
68.4 0.0360734
68.44 0.0276522
68.48 0.0120834
68.52 0.0239793
68.56 0.0111322
68.6 0.0204802
68.64 0.0268002
68.68 0.03126
68.72 0.0306381
68.76 0.0151326
68.8 0.0266743
68.84 0.016137
68.88 0.0187301
68.92 0.0288567
68.96 0.0181852
69 0.0359828
69.04 0.0405146
69.08 0.0219829
69.12 0.0207935
69.16 0.0357258
69.2 0.0110944
69.24 0.016942
69.28 0.0211821
69.32 0.0254091
69.36 0.0332366
69.4 0.0109992
69.44 0.0215667
69.48 0.0142916
69.52 0.00366784
69.56 0.0193062
69.6 0.0191383
69.64 0.0064326
69.68 0.00439715
69.72 0.0137048
69.76 0.00183668
69.8 0.00983676
69.84 0.0105147
69.88 0.00334123
69.92 0.0413817
69.96 0.0283615
70 0.0238893
70.04 0.0135931
70.08 0.0429973
70.12 -0.00308189
70.16 0.023175
70.2 0.036807
70.24 0.0148856
70.28 0.0343021
70.32 -0.00316429
70.36 0.0258004
70.4 0.00329497
70.44 0.0126008
70.48 0.0127509
70.52 0.0200281
70.56 0.0407454
70.6 0.040682
70.64 0.0338801
70.68 0.0509154
70.72 0.03323
70.76 0.0776909
70.8 0.0637697
70.84 0.0890767
70.88 0.108745
70.92 0.0991152
70.96 0.123231
71 0.142006
71.04 0.136911
71.08 0.172881
71.12 0.165364
71.16 0.176746
71.2 0.203924
71.24 0.213442
71.28 0.206461
71.32 0.196916
71.36 0.176442
71.4 0.182896
71.44 0.161004
71.48 0.141951
71.52 0.144831
71.56 0.110301
71.6 0.0785174
71.64 0.0802825
71.68 0.0858179
71.72 0.0685435
71.76 0.0489493
71.8 0.0477465
71.84 0.04392
71.88 0.0538069
71.92 0.0318051
71.96 0.0274989
72 0.0196799
72.04 0.028313
72.08 0.0288867
72.12 0.0152629
72.16 0.0128204
72.2 -0.00917241
72.24 0.00902934
72.28 -0.00504522
72.32 0.00931576
72.36 0.0155736
72.4 0.00702988
72.44 0.0144218
72.48 -0.00110379
72.52 0.0213311
72.56 -0.00391956
72.6 0.0141169
72.64 0.00425614
72.68 0.00727966
72.72 0.00495213
72.76 -0.00962347
72.8 -0.00299471
72.84 -0.00389907
72.88 -0.0159915
72.885 -0.016302