File: data/xrd/xy/2018-12-11T15_55_59.662061+00_00_LBL.xy
'Id: "" Comment: "Integrate frame perovskite0_02_002.gfrmwith cursor Wedge Cursor #1" Operator: "UC Berkeley" Anode: "Co" Scantype: "TwoTheta" TimePerStep: "500"
14.09 -0.0235468
14.135 -0.0157502
14.18 -0.0198688
14.225 -0.00138368
14.27 0.0203808
14.315 0.0286336
14.36 0.00616497
14.405 0.0718919
14.45 -0.00488966
14.495 0.0188663
14.54 0.00694091
14.585 0.00480193
14.63 0.0243003
14.675 0.0401103
14.72 0.0108228
14.765 0.0298284
14.81 0.0209236
14.855 0.0396304
14.9 -0.00849227
14.945 0.0299181
14.99 0.031872
15.035 0.0336687
15.08 0.0115113
15.125 0.0566774
15.17 0.0178807
15.215 0.0368763
15.26 0.0534985
15.305 0.026224
15.35 0.0271783
15.395 0.0409374
15.44 0.0416544
15.485 0.0366217
15.53 0.0340732
15.575 0.024595
15.62 0.0415672
15.665 0.0460216
15.71 0.0216369
15.755 0.0411179
15.8 0.0353567
15.845 0.0140284
15.89 0.0490081
15.935 -0.0126186
15.98 0.0585488
16.025 0.024663
16.07 0.0348473
16.115 0.0270112
16.16 0.0451056
16.205 0.0540003
16.25 0.0309645
16.295 0.0285687
16.34 0.0186684
16.385 0.0737497
16.43 0.0650712
16.475 0.0477154
16.52 0.0713279
16.565 0.0956693
16.61 0.0997134
16.655 0.0693732
16.7 0.0290051
16.745 0.0355664
16.79 0.0448853
16.835 0.0336728
16.88 0.015289
16.925 0.0304367
16.97 -0.00178211
17.015 0.0209786
17.06 0.0454435
17.105 0.03286
17.15 0.0439239
17.195 0.0325374
17.24 0.00173736
17.285 0.0201463
17.33 0.0273839
17.375 0.0538711
17.42 0.00996174
17.465 0.0279712
17.51 0.0329374
17.555 0.0299588
17.6 0.0287534
17.645 0.0289425
17.69 0.0559294
17.735 0.0734416
17.78 0.032825
17.825 0.0357276
17.87 0.0136198
17.915 0.053426
17.96 -0.00685946
18.005 0.0406824
18.05 0.0389056
18.095 0.0195059
18.14 0.0514305
18.185 0.0125734
18.23 0.0280986
18.275 0.0280327
18.32 0.0287976
18.365 0.0527329
18.41 0.0323847
18.455 0.0335545
18.5 0.0254284
18.545 0.021541
18.59 0.0241525
18.635 0.0278692
18.68 0.00338684
18.725 0.0104597
18.77 0.0110524
18.815 0.0394626
18.86 0.0442575
18.905 0.0514182
18.95 0.0582072
18.995 0.00508649
19.04 0.0535614
19.085 0.0397899
19.13 0.0562415
19.175 0.0596369
19.22 0.0390284
19.265 0.0795569
19.31 0.0569185
19.355 0.0481228
19.4 0.0503125
19.445 0.0391095
19.49 0.0422694
19.535 0.0261108
19.58 0.0873299
19.625 0.0408681
19.67 0.0406423
19.715 0.0430239
19.76 0.0388733
19.805 0.0620154
19.85 0.0527052
19.895 0.0306823
19.94 0.065752
19.985 0.0327023
20.03 0.00514901
20.075 0.0417534
20.12 0.0441016
20.165 0.0398776
20.21 0.0612645
20.255 0.0230328
20.3 0.0105845
20.345 0.066037
20.39 0.0627648
20.435 0.0606472
20.48 0.0410763
20.525 0.0608261
20.57 0.0722212
20.615 0.0515594
20.66 0.0282963
20.705 0.0783296
20.75 0.0502856
20.795 0.0757934
20.84 0.0513038
20.885 0.0478228
20.93 0.0637262
20.975 0.068327
21.02 0.0476965
21.065 0.0902649
21.11 0.0801685
21.155 0.0741629
21.2 0.0899835
21.245 0.0688292
21.29 0.0759063
21.335 0.0562781
21.38 0.0804643
21.425 0.0757245
21.47 0.0797229
21.515 0.0573655
21.56 0.0689645
21.605 0.0802275
21.65 0.0593812
21.695 0.0577039
21.74 0.0931499
21.785 0.048663
21.83 0.0924263
21.875 0.048543
21.92 0.082627
21.965 0.0529952
22.01 0.0995314
22.055 0.0750541
22.1 0.0629644
22.145 0.0712874
22.19 0.0751638
22.235 0.0931642
22.28 0.0835853
22.325 0.105957
22.37 0.0949313
22.415 0.123967
22.46 0.10834
22.505 0.11161
22.55 0.111371
22.595 0.128731
22.64 0.12873
22.685 0.121969
22.73 0.08264
22.775 0.132093
22.82 0.10943
22.865 0.134028
22.91 0.118778
22.955 0.130685
23 0.130985
23.045 0.106441
23.09 0.104921
23.135 0.119506
23.18 0.0814587
23.225 0.118306
23.27 0.111006
23.315 0.13736
23.36 0.121425
23.405 0.131497
23.45 0.135377
23.495 0.114952
23.54 0.147144
23.585 0.111419
23.63 0.139247
23.675 0.155555
23.72 0.142012
23.765 0.112995
23.81 0.134145
23.855 0.135284
23.9 0.105133
23.945 0.173464
23.99 0.148847
24.035 0.133524
24.08 0.103272
24.125 0.137395
24.17 0.112675
24.215 0.127056
24.26 0.144452
24.305 0.134756
24.35 0.18264
24.395 0.13348
24.44 0.13045
24.485 0.150205
24.53 0.144083
24.575 0.143516
24.62 0.15414
24.665 0.15991
24.71 0.189663
24.755 0.152059
24.8 0.166341
24.845 0.150406
24.89 0.203027
24.935 0.170929
24.98 0.17659
25.025 0.204313
25.07 0.201935
25.115 0.221077
25.16 0.215223
25.205 0.221366
25.25 0.223932
25.295 0.232739
25.34 0.27131
25.385 0.276801
25.43 0.265045
25.475 0.282964
25.52 0.345638
25.565 0.37623
25.61 0.419939
25.655 0.450385
25.7 0.521793
25.745 0.605597
25.79 0.735988
25.835 0.859729
25.88 1.0153
25.925 1.27288
25.97 1.56364
26.015 1.93628
26.06 2.3429
26.105 2.71584
26.15 2.97464
26.195 3.06491
26.24 2.91288
26.285 2.5805
26.33 2.03317
26.375 1.58962
26.42 1.18666
26.465 0.895247
26.51 0.663658
26.555 0.494242
26.6 0.432684
26.645 0.349499
26.69 0.289539
26.735 0.249793
26.78 0.245405
26.825 0.210861
26.87 0.196828
26.915 0.163844
26.96 0.162679
27.005 0.152129
27.05 0.132115
27.095 0.116628
27.14 0.10598
27.185 0.0878913
27.23 0.122445
27.275 0.137395
27.32 0.137544
27.365 0.21656
27.41 0.273976
27.455 0.269851
27.5 0.255619
27.545 0.152213
27.59 0.0827061
27.635 0.0727663
27.68 0.0678852
27.725 0.054446
27.77 0.0673377
27.815 0.0334104
27.86 0.073702
27.905 0.0555727
27.95 0.0288942
27.995 0.0606123
28.04 0.0189342
28.085 0.029196
28.13 0.0395576
28.175 0.0237111
28.22 0.038551
28.265 0.0480014
28.31 0.056494
28.355 0.0192889
28.4 0.0355874
28.445 0.0238176
28.49 0.0241691
28.535 0.0318169
28.58 0.0232935
28.625 0.00865466
28.67 0.0323832
28.715 0.0247282
28.76 0.0242168
28.805 0.00877686
28.85 0.0153214
28.895 0.0078955
28.94 0.0356077
28.985 0.0075391
29.03 0.0317306
29.075 0.0206778
29.12 0.026816
29.165 -0.00105691
29.21 0.0282656
29.255 -0.0050954
29.3 -0.000162646
29.345 -0.00552911
29.39 0.00446657
29.435 0.0085256
29.48 0.0232948
29.525 0.0176139
29.57 0.0108572
29.615 0.0151384
29.66 0.0151755
29.705 0.0228758
29.75 0.0139077
29.795 0.0304158
29.84 0.0304086
29.885 0.0633994
29.93 0.119866
29.975 0.12878
30.02 0.073277
30.065 0.043944
30.11 0.0194082
30.155 0.0166979
30.2 0.0093257
30.245 -0.00715424
30.29 -0.00195632
30.335 0.0173761
30.38 0.0105801
30.425 0.0169025
30.47 -0.0034931
30.515 0.0100191
30.56 0.0141282
30.605 0.00160677
30.65 0.0174724
30.695 0.0139702
30.74 0.0289074
30.785 0.00420104
30.83 -0.0069405
30.875 0.0234347
30.92 0.0436381
30.965 0.0450197
31.01 0.0289653
31.055 0.022673
31.1 0.0479241
31.145 0.00648445
31.19 0.023266
31.235 0.0335122
31.28 0.0191605
31.325 0.0215212
31.37 0.0360858
31.415 0.0252533
31.46 0.0180835
31.505 0.0260331
31.55 0.0507988
31.595 0.070498
31.64 0.0611702
31.685 0.0349741
31.73 0.0359142
31.775 0.0443461
31.82 0.0402412
31.865 0.0274093
31.91 0.0129659
31.955 0.000764322
32 0.0263714
32.045 0.0247249
32.09 0.000302884
32.135 0.00942857
32.18 0.0386278
32.225 0.0360347
32.27 0.0437606
32.315 0.0415741
32.36 0.051859
32.405 0.0409273
32.45 0.0456426
32.495 0.00927068
32.54 0.0117819
32.585 0.0284915
32.63 0.0134761
32.675 0.0215085
32.72 0.0271368
32.765 0.019401
32.81 -0.00414746
32.855 0.00270108
32.9 0.0112694
32.945 0.0113868
32.99 -0.0052568
33.035 -0.00248834
33.08 -0.00171772
33.125 0.0180912
33.17 0.0143961
33.215 0.0101245
33.26 0.0133126
33.305 0.0102217
33.35 0.00883618
33.395 0.0104067
33.44 0.0139172
33.485 0.010481
33.53 0.0379432
33.575 0.0357086
33.62 0.0225646
33.665 0.0138586
33.71 0.0195465
33.755 0.0158303
33.8 -0.00500439
33.845 0.0150917
33.89 0.00205875
33.935 0.00696251
33.98 0.0196336
34.025 0.00598679
34.07 0.0246358
34.115 0.0111518
34.16 0.0080402
34.205 -0.00736275
34.25 -0.00897495
34.295 0.00673084
34.34 0.0202586
34.385 0.00969352
34.43 0.0036001
34.475 0.0190083
34.52 0.00147261
34.565 0.00837251
34.61 0.0208992
34.655 0.0039608
34.7 0.0048756
34.745 0.0208345
34.79 0.0152981
34.835 0.0211355
34.88 -0.00469384
34.925 -0.0080804
34.97 -0.00187725
35.015 0.00152123
35.06 0.0127752
35.105 0.00103719
35.15 0.00361022
35.195 0.0134197
35.24 0.00424948
35.285 0.0109505
35.33 -0.0032925
35.375 0.00365989
35.42 0.017758
35.465 0.0110351
35.51 0.00313664
35.555 0.0191878
35.6 0.0206426
35.645 0.0261369
35.69 0.0127765
35.735 0.0162493
35.78 0.00914388
35.825 0.0154999
35.87 0.0291583
35.915 0.00688753
35.96 0.0183301
36.005 0.0169352
36.05 0.0116359
36.095 -0.00129943
36.14 0.00580231
36.185 0.00446872
36.23 -0.00842324
36.275 -0.00540089
36.32 0.0142068
36.365 0.0200129
36.41 0.026125
36.455 0.0355645
36.5 0.0468473
36.545 0.0448082
36.59 0.0270027
36.635 0.0244396
36.68 0.0555732
36.725 0.0363232
36.77 0.086254
36.815 0.0605596
36.86 0.0769439
36.905 0.0608681
36.95 0.0617735
36.995 0.0552762
37.04 0.0211653
37.085 0.0096479
37.13 0.0142623
37.175 0.00762663
37.22 0.00683327
37.265 0.00385037
37.31 0.00430224
37.355 0.00677733
37.4 0.00333339
37.445 0.0081813
37.49 0.00632911
37.535 0.0109538
37.58 0.0271589
37.625 0.0369473
37.67 0.0406786
37.715 0.0457352
37.76 0.0535342
37.805 0.0617772
37.85 0.0540802
37.895 0.0670174
37.94 0.0537533
37.985 0.0499308
38.03 0.0465575
38.075 0.0170518
38.12 0.0242136
38.165 0.0543986
38.21 0.048665
38.255 0.0520374
38.3 0.0387778
38.345 0.0556069
38.39 0.0552985
38.435 0.0569252
38.48 0.0487972
38.525 0.0420946
38.57 0.0586458
38.615 0.0582052
38.66 0.0542925
38.705 0.0657535
38.75 0.0610531
38.795 0.0934876
38.84 0.095759
38.885 0.103889
38.93 0.124482
38.975 0.158483
39.02 0.171339
39.065 0.215489
39.11 0.272106
39.155 0.283457
39.2 0.312041
39.245 0.365397
39.29 0.39635
39.335 0.450567
39.38 0.46147
39.425 0.52428
39.47 0.531321
39.515 0.554367
39.56 0.53398
39.605 0.547317
39.65 0.53232
39.695 0.498478
39.74 0.485257
39.785 0.453905
39.83 0.395499
39.875 0.39111
39.92 0.353421
39.965 0.327841
40.01 0.26576
40.055 0.211669
40.1 0.173792
40.145 0.147833
40.19 0.119345
40.235 0.0871681
40.28 0.0682816
40.325 0.0622144
40.37 0.0440283
40.415 0.0399665
40.46 0.0366771
40.505 0.0370451
40.55 0.0392458
40.595 0.0320259
40.64 0.0314009
40.685 0.0356968
40.73 0.0195196
40.775 0.0276266
40.82 0.0170793
40.865 0.0245449
40.91 0.0224095
40.955 0.0194629
41 0.0178534
41.045 0.0209195
41.09 0.0112078
41.135 0.0271554
41.18 -0.00244825
41.225 0.0205267
41.27 0.0211397
41.315 0.0305775
41.36 0.0221666
41.405 0.0356233
41.45 0.0287053
41.495 0.00573203
41.54 0.0102221
41.585 0.0156484
41.63 0.00609045
41.675 0.00848279
41.72 0.0199153
41.765 0.0145442
41.81 0.00510207
41.855 0.00924627
41.9 0.0121449
41.945 0.00779107
41.99 0.00386931
42.035 0.00622614
42.08 0.017854
42.125 0.0152977
42.17 0.0135946
42.215 0.00451934
42.26 0.0108739
42.305 0.00392699
42.35 0.0159689
42.395 0.021463
42.44 0.00189147
42.485 0.0102536
42.53 0.0156138
42.575 0.0062304
42.62 -0.00634892
42.665 0.00896755
42.71 0.00185807
42.755 0.00599566
42.8 -0.00440023
42.845 -0.000576927
42.89 0.0168736
42.935 0.0189707
42.98 -0.00987794
43.025 0.0206943
43.07 0.00319296
43.115 -0.00476134
43.16 0.000614106
43.205 0.0240735
43.25 0.00159193
43.295 0.00431908
43.34 0.00855455
43.385 -0.00617741
43.43 0.00829586
43.475 -0.00467777
43.52 0.00425232
43.565 0.0138347
43.61 0.00559336
43.655 0.0222058
43.7 0.0193601
43.745 0.0202082
43.79 0.00981727
43.835 0.0287408
43.88 0.00041588
43.925 0.0081984
43.97 -0.0043952
44.015 0.0157833
44.06 -0.00398718
44.105 0.00326851
44.15 0.0134354
44.195 0.00662527
44.24 0.00729259
44.285 0.00717098
44.33 0.00971785
44.375 0.00615546
44.42 0.0148385
44.465 0.0331081
44.51 0.024628
44.555 0.023272
44.6 0.0278293
44.645 0.024363
44.69 0.0129101
44.735 0.020636
44.78 0.015829
44.825 0.0260547
44.87 0.0184175
44.915 0.0393491
44.96 0.00996825
45.005 0.012364
45.05 0.0157608
45.095 0.0197409
45.14 0.00364919
45.185 0.0130872
45.23 0.0147601
45.275 0.0194158
45.32 0.0120169
45.365 0.0149503
45.41 0.0216321
45.455 0.0195839
45.5 0.0127625
45.545 0.0199684
45.59 0.0313576
45.635 0.0390791
45.68 0.0177982
45.725 0.0416299
45.77 0.0175786
45.815 0.0351237
45.86 0.0195516
45.905 0.0312109
45.95 0.029613
45.995 0.0378883
46.04 0.0524276
46.085 0.0454875
46.13 0.0394967
46.175 0.0370776
46.22 0.0449208
46.265 0.0364688
46.31 0.0413319
46.355 0.0131732
46.4 0.0264875
46.445 0.0222752
46.49 0.0226956
46.535 0.0194928
46.58 0.0094076
46.625 0.0177101
46.67 0.0228148
46.715 0.0311334
46.76 0.0297539
46.805 0.0191648
46.85 -0.000681289
46.895 0.00497891
46.94 0.0155268
46.985 0.00770195
47.03 0.0263597
47.075 0.00619001
47.12 0.0152747
47.165 0.0149092
47.21 0.023888
47.255 0.00068915
47.3 -0.00103254
47.345 -0.00220274
47.39 -0.00652552
47.435 0.00358064
47.48 -0.00337543
47.525 -0.0151902
47.57 -0.00193337
47.615 -0.00209686
47.66 -0.00709356
47.705 -0.00617619
47.75 -0.00277621
47.795 -0.0145228
47.84 -0.00368691
47.885 -0.00140497
47.93 0.00721221
47.975 -0.00798212
48.02 -0.00146452
48.065 0.00129867
48.11 0.0015876
48.155 0.00062599
48.2 0.00595125
48.245 -0.0136098
48.29 0.00542013
48.335 -0.00656995
48.38 -0.00988386
48.425 -0.00551391
48.47 0.00464372
48.515 0.00410378
48.56 0.00655683
48.605 0.00509945
48.65 0.000603298
48.695 -0.00164513
48.74 0.0115102
48.785 -0.0128384
48.83 0.0111117
48.875 -0.004523
48.92 0.00840784
48.965 -0.00329544
49.01 0.0146724
49.055 0.0173504
49.1 0.00542057
49.145 0.00884417
49.19 0.00525325
49.235 0.00311693
49.28 -0.000571294
49.325 0.00244908
49.37 -0.00119266
49.415 -0.000807106
49.46 -0.00524267
49.505 0.0129788
49.55 0.00372686
49.595 -0.00148337
49.64 0.00859678
49.685 0.002953
49.73 0.0115187
49.775 0.00690507
49.82 0.0114555
49.865 0.0111137
49.91 0.0121222
49.955 0.0212065
50 0.0248929
50.045 0.0213217
50.09 0.0133589
50.135 0.021542
50.18 0.00104644
50.225 0.0235183
50.27 0.0169992
50.315 0.00273048
50.36 0.0164845
50.405 0.0116948
50.45 0.0272773
50.495 0.0175944
50.54 0.0262815
50.585 0.0312916
50.63 0.0243807
50.675 0.026596
50.72 0.0243778
50.765 0.0256912
50.81 0.0324935
50.855 0.0225353
50.9 0.0239883
50.945 0.0178981
50.99 0.0212858
51.035 0.00449441
51.08 0.00591251
51.125 0.0133097
51.17 0.00569823
51.215 -0.00272704
51.26 -0.00427666
51.305 0.00242805
51.35 0.00809887
51.395 -0.00952297
51.44 -0.000762173
51.485 -0.00226718
51.53 0.000655054
51.575 -0.000550842
51.62 -0.0050684
51.665 0.00257644
51.71 -0.000783703
51.755 0.00529968
51.8 0.00145004
51.845 0.00834955
51.89 0.00930599
51.935 0.00116853
51.98 0.00691815
52.025 0.00188047
52.07 0.0105478
52.115 -0.00377604
52.16 0.00737082
52.205 0.00962453
52.25 0.00532701
52.295 0.0193535
52.34 0.0154112
52.385 0.0190301
52.43 0.0217925
52.475 0.0194291
52.52 0.0238318
52.565 0.013966
52.61 0.0143015
52.655 0.0203331
52.7 0.0218793
52.745 0.011594
52.79 0.029989
52.835 0.014213
52.88 0.0164662
52.925 -0.00516547
52.97 0.0138485
53.015 0.00390051
53.06 0.0102626
53.105 -0.000221927
53.15 0.00265118
53.195 0.0111105
53.24 0.00684845
53.285 0.0201236
53.33 0.0152797
53.375 0.00176974
53.42 0.0227799
53.465 0.0101388
53.51 0.0146856
53.555 0.00565359
53.6 0.0119928
53.645 0.00339666
53.69 0.0121051
53.735 0.00248594
53.78 0.00629183
53.825 -0.00329872
53.87 0.0100291
53.915 0.0119586
53.96 0.015581
54.005 0.0134869
54.05 0.0122572
54.095 0.00690467
54.14 0.0186463
54.185 0.0155749
54.23 0.0088178
54.275 0.0113264
54.32 0.0141482
54.365 0.0215828
54.41 0.0145203
54.455 0.00167723
54.5 0.0169324
54.545 0.0344783
54.59 0.0238817
54.635 0.0159634
54.68 0.0161619
54.725 0.0293733
54.77 0.0293538
54.815 0.031609
54.86 0.0287631
54.905 0.0447471
54.95 0.0384099
54.995 0.0551617
55.04 0.0579828
55.085 0.0803509
55.13 0.0778309
55.175 0.0784724
55.22 0.0939341
55.265 0.116408
55.31 0.115711
55.355 0.129125
55.4 0.153731
55.445 0.166042
55.49 0.164995
55.535 0.182329
55.58 0.175611
55.625 0.178765
55.67 0.169946
55.715 0.162596
55.76 0.157378
55.805 0.163635
55.85 0.142826
55.895 0.120208
55.94 0.0966789
55.985 0.0917718
56.03 0.0950614
56.075 0.0695564
56.12 0.0564121
56.165 0.0436745
56.21 0.0419514
56.255 0.0382485
56.3 0.035585
56.345 0.0297119
56.39 0.0367793
56.435 0.0185604
56.48 0.0232919
56.525 0.0279027
56.57 0.0251591
56.615 0.0389616
56.66 0.0349157
56.705 0.0312766
56.75 0.030497
56.795 0.0257608
56.84 0.0269559
56.885 0.0154101
56.93 0.010655
56.975 0.020266
57.02 0.00418776
57.065 0.000819391
57.11 0.00179522
57.155 0.0161852
57.2 0.0217244
57.245 0.00177344
57.29 0.0189484
57.335 0.00868771
57.38 0.00718061
57.425 0.00672362
57.47 0.0232238
57.515 0.00607993
57.56 0.00747793
57.605 -0.0052662
57.65 0.00319484
57.695 0.00113714
57.74 0.00369965
57.785 -0.000608059
57.83 -0.0134243
57.875 0.0117101
57.92 0.00216648
57.965 -0.000271248
58.01 0.0104975
58.055 0.000575353
58.1 -0.0124092
58.145 0.00942425
58.19 -0.00325482
58.235 -0.000308656
58.28 -0.000970786
58.325 -0.00557053
58.37 0.00231344
58.415 0.00511295
58.46 0.000472437
58.505 0.00641471
58.55 -0.000710707
58.595 -0.00286841
58.64 -0.000617697
58.685 0.00550393
58.73 0.00445435
58.775 -0.00557854
58.82 0.0045107
58.865 0.0108722
58.91 -0.00254766
58.955 0.00802833
59 0.000508786
59.045 0.0134264
59.09 -0.00350859
59.135 0.00963289
59.18 -0.000950453
59.225 -0.00176974
59.27 0.00693006
59.315 0.00816275
59.36 0.00998482
59.405 0.0116827
59.45 0.0173103
59.495 0.0217018
59.54 0.0110942
59.585 0.0113281
59.63 0.023517
59.675 0.0224375
59.72 0.0207105
59.765 0.0149181
59.81 0.0243776
59.855 0.00975917
59.9 0.0079128
59.945 -0.000412695
59.99 0.0239156
60.035 0.00220734
60.08 0.00626207
60.125 0.0128745
60.17 0.00886271
60.215 0.00554449
60.26 0.00169717
60.305 0.0153407
60.35 -0.00237897
60.395 -0.00554032
60.44 0.00988422
60.485 0.00555856
60.53 0.0132499
60.575 0.014166
60.62 0.00501913
60.665 0.0318124
60.71 0.0202627
60.755 0.0130449
60.8 0.0267621
60.845 0.0300402
60.89 0.0296038
60.935 0.0286451
60.98 0.0319481
61.025 0.0331032
61.07 0.0436071
61.115 0.0309902
61.16 0.0395705
61.205 0.0274062
61.25 0.0286644
61.295 0.0220518
61.34 0.0229652
61.385 0.0192252
61.43 0.0149702
61.475 0.0308231
61.52 0.033317
61.565 0.037526
61.61 0.0281235
61.655 0.0222575
61.7 0.0404249
61.745 0.0352164
61.79 0.0449666
61.835 0.0502401
61.88 0.0591037
61.925 0.0520228
61.97 0.0493173
62.015 0.034622
62.06 0.0396941
62.105 0.0513915
62.15 0.0520127
62.195 0.0589134
62.24 0.0628509
62.285 0.0707383
62.33 0.0635547
62.375 0.0680089
62.42 0.100811
62.465 0.0942965
62.51 0.071746
62.555 0.0844615
62.6 0.0782319
62.645 0.0779936
62.69 0.0870555
62.735 0.0600797
62.78 0.0690574
62.825 0.0580375
62.87 0.0695632
62.915 0.0443045
62.96 0.0430323
63.005 0.0466992
63.05 0.0254684
63.095 0.0392991
63.14 0.0135124
63.185 0.0142193
63.23 0.0155549
63.275 0.0162727
63.32 0.0141599
63.365 0.0106134
63.41 0.00499543
63.455 0.00418501
63.5 0.00747296
63.545 0.0134529
63.59 0.00372726
63.635 0.00811103
63.68 0.00366787
63.725 8.84835e-05
63.77 0.0124744
63.815 0.00402043
63.86 0.0112767
63.905 0.0126653
63.95 0.0174412
63.995 0.0145162
64.04 0.00569611
64.085 0.00299658
64.13 0.00757188
64.175 0.0188011
64.22 0.00210214
64.265 -0.00299921
64.31 0.0141032
64.355 0.00563603
64.4 -0.000502442
64.445 0.0123996
64.49 0.0051582
64.535 0.0132744
64.58 0.00830629
64.625 0.0129743
64.67 0.00618159
64.715 0.00931359
64.76 0.000495232
64.805 -0.00190143
64.85 0.010436
64.895 0.00930581
64.94 -0.000816284
64.985 0.00988257
65.03 0.0134676
65.075 -0.000959378
65.12 0.0101141
65.165 0.00286741
65.21 0.018256
65.255 0.00822286
65.3 0.0132076
65.345 0.010899
65.39 9.35971e-05
65.435 0.00168815
65.48 0.00327614
65.525 0.0170486
65.57 0.0120112
65.615 0.0179822
65.66 0.0062543
65.705 0.00653573
65.75 0.0046539
65.795 -0.00222562
65.84 0.00481559
65.885 -0.00023002
65.93 0.00394028
65.975 0.0185725
66.02 0.00775425
66.065 0.015719
66.11 0.00426192
66.155 0.0152776
66.2 0.00391833
66.245 0.0181586
66.29 0.00791492
66.335 0.0131117
66.38 0.0102322
66.425 0.010807
66.47 0.00329268
66.515 0.00333281
66.56 0.00899762
66.605 -0.00104243
66.65 0.00683097
66.695 0.0161426
66.74 0.00811903
66.785 0.00703457
66.83 0.00468983
66.875 0.00140171
66.92 0.00646012
66.965 0.00448775
67.01 0.00284832
67.055 0.00104949
67.1 -0.00635461
67.145 0.0149461
67.19 -0.00107712
67.235 0.0117468
67.28 0.00491796
67.325 0.00591571
67.37 0.0178594
67.415 0.0019711
67.46 0.00744871
67.505 0.00455458
67.55 0.00952571
67.595 -0.00156881
67.64 0.0179046
67.685 0.0157714
67.73 0.00800883
67.775 0.0206799
67.82 0.001684
67.865 -0.00314855
67.91 0.0146202
67.955 0.0168556
68 0.00462082
68.045 0.000717518
68.09 -0.00453291
68.135 0.0024256
68.18 -0.00142688
68.225 0.0133181
68.27 0.0111684
68.315 0.00843631
68.36 0.010058
68.405 0.0075643
68.45 0.012569
68.495 0.0203025
68.54 0.0202762
68.585 0.0174527
68.63 0.0254115
68.675 0.0211186
68.72 0.00966932
68.765 0.0183744
68.81 0.0224154
68.855 0.0262221
68.9 0.0301125
68.945 0.0343679
68.99 0.015122
69.035 0.0357266
69.08 0.0304347
69.125 0.0191358
69.17 0.0241235
69.215 0.0177561
69.26 0.0133561
69.305 0.0217744
69.35 0.0162882
69.395 0.010346
69.44 0.0261902
69.485 0.00950195
69.53 0.00870638
69.575 0.00600988
69.62 0.00312377
69.665 0.00535399
69.71 0.00183879
69.755 0.0206022
69.8 0.00481029
69.845 0.000254778
69.89 -0.000917056
69.935 0.00060649
69.98 0.00451213
70.025 0.0155414
70.07 0.00323387
70.115 0.0106156
70.16 0.00880026
70.205 0.00671201
70.25 0.00824136
70.295 0.00059482
70.34 0.000127824
70.385 0.00832018
70.43 0.00601786
70.475 0.00939923
70.52 0.00163679
70.565 0.022851
70.61 0.0232715
70.655 0.0175683
70.7 0.0430276
70.745 0.0325532
70.79 0.0399757
70.835 0.0599097
70.88 0.111478
70.925 0.156194
70.97 0.190673
71.015 0.201606
71.06 0.196059
71.105 0.162346
71.15 0.134732
71.195 0.0841727
71.24 0.0461201
71.285 0.0385527
71.33 0.0260862
71.375 0.0337759
71.42 0.020332
71.465 0.0138145
71.51 0.0100805
71.555 0.0157094
71.6 0.0209292
71.645 0.0417963
71.69 0.0205008
71.735 0.0201462
71.78 0.030011
71.825 0.0281865
71.87 0.0284204
71.915 0.0287282
71.96 0.0282598
72.005 0.0192452
72.05 0.0261543
72.095 0.039855
72.14 0.0194306
72.185 0.0179735
72.23 0.011811
72.275 0.0106167
72.32 0.00571718
72.365 0.00104567
72.41 0.0176799
72.455 -0.00996516
72.5 0.0139763
72.545 0.00397627
72.59 0.0110994
72.635 0.0175007
72.68 0.00144043
72.725 -0.00136401
72.77 -0.000808131
72.815 -0.00151115
72.86 0.00532066
72.905 -0.000224814
72.95 -0.00319943
72.995 0.00943301
73.04 0.00900883
73.085 0.00399181
73.13 0.00390978
73.175 -0.000930162
73.22 0.00463875
73.265 0.0094981
73.31 -0.00345311
73.355 0.0113675
73.4 0.00422906
73.445 0.0159934
73.49 0.00685502
73.535 0.0126487
73.58 0.0137249
73.625 0.0254986
73.67 0.0194424
73.715 0.0180465
73.76 0.0255198
73.805 0.00814223
73.85 0.0198259
73.895 0.0168736
73.94 0.0295597
73.985 0.0185522
74.03 0.0179392
74.075 0.0341589
74.12 0.00709298
74.165 0.0168107
74.21 0.0173701
74.255 0.0164514
74.3 0.00353849
74.345 0.0128973
74.39 0.00335308
74.435 0.00766869
74.48 0.00421466
74.525 0.00795682
74.57 0.00386734
74.615 -0.00339613
74.66 -0.00162076
74.705 0.0186263
74.75 -0.00803364
74.795 0.0080094
74.84 0.0185917
74.885 0.0114492
74.93 0.0103084
74.975 0.012657
75.02 0.0205098
75.065 0.0196173
75.11 0.00127478
75.155 0.00147082
75.2 0.0122049
75.245 0.0114328
75.29 0.0015145
75.305 -0.0108593