File: data/xrd/xy/2019-08-08T16_56_58.410591+00_00_LBL_C7.xy
'Id: "" Comment: "Integrate frame 4fluorobenzyl_03_001.gfrmwith cursor Wedge Cursor #3" Operator: "UC Berkeley" Anode: "Co" Scantype: "TwoTheta" TimePerStep: "500"
13.315 -0.0316202
13.36 0.066045
13.405 0.121204
13.45 0.325678
13.495 0.461459
13.54 0.724293
13.585 0.865553
13.63 1.09488
13.675 0.940099
13.72 0.622537
13.765 0.493649
13.81 0.306447
13.855 0.126911
13.9 0.0500739
13.945 0.0575116
13.99 0.0280416
14.035 0.0430126
14.08 0.0512565
14.125 0.0460141
14.17 0.0638634
14.215 0.0328582
14.26 0.110566
14.305 0.0428123
14.35 0.0549928
14.395 0.0120568
14.44 0.077787
14.485 0.0692575
14.53 0.0839603
14.575 0.0727953
14.62 0.00990815
14.665 0.00126366
14.71 0.0397589
14.755 0.104421
14.8 0.0352464
14.845 0.0572564
14.89 0.0494746
14.935 0.030196
14.98 0.0291855
15.025 0.100461
15.07 0.060643
15.115 0.0481834
15.16 0.0708743
15.205 0.0328791
15.25 0.0725892
15.295 0.152293
15.34 -0.00917216
15.385 0.0719172
15.43 -0.00607406
15.475 0.0386273
15.52 0.0206146
15.565 0.0576655
15.61 0.0355419
15.655 0.0622995
15.7 0.0546003
15.745 0.0802506
15.79 0.111654
15.835 0.0482768
15.88 0.0122521
15.925 0.0397224
15.97 0.0642872
16.015 -0.00272673
16.06 0.0654109
16.105 0.0955611
16.15 0.130839
16.195 0.0311523
16.24 0.029942
16.285 0.0527702
16.33 0.0668801
16.375 0.129357
16.42 0.119425
16.465 0.0701263
16.51 0.0157069
16.555 0.0246476
16.6 0.0101547
16.645 0.0436993
16.69 0.0614328
16.735 0.0660571
16.78 0.0192098
16.825 0.0538231
16.87 0.0514996
16.915 0.0770712
16.96 0.0715855
17.005 0.0336951
17.05 0.0911455
17.095 0.0301604
17.14 0.0508173
17.185 0.0130073
17.23 0.0031587
17.275 0.0374171
17.32 0.0720675
17.365 -0.00840338
17.41 0.0320885
17.455 0.00956705
17.5 0.113747
17.545 0.0595537
17.59 0.0658824
17.635 -0.0150545
17.68 0.122877
17.725 0.0461978
17.77 0.039797
17.815 0.0748688
17.86 0.0464315
17.905 0.0231891
17.95 0.0713994
17.995 0.0606465
18.04 0.00962265
18.085 0.0795638
18.13 0.0881279
18.175 0.0466635
18.22 0.0428579
18.265 0.0953362
18.31 0.0772288
18.355 0.0797763
18.4 0.0904733
18.445 0.0430652
18.49 0.0932549
18.535 0.0622104
18.58 0.0639313
18.625 0.0932091
18.67 0.0628809
18.715 0.0378502
18.76 0.0429269
18.805 0.0442584
18.85 0.0687061
18.895 0.00985574
18.94 0.0467561
18.985 0.0472266
19.03 0.03154
19.075 0.0871149
19.12 0.0424647
19.165 0.0494882
19.21 0.0603958
19.255 0.0142824
19.3 0.066115
19.345 0.0641227
19.39 0.0159115
19.435 0.0288798
19.48 0.0713519
19.525 0.0704834
19.57 0.0524865
19.615 0.0484372
19.66 0.0475379
19.705 0.0319179
19.75 0.0758177
19.795 0.0424311
19.84 0.0469307
19.885 0.0399787
19.93 0.0214692
19.975 0.0447654
20.02 0.0543428
20.065 0.046435
20.11 0.0383235
20.155 0.0310624
20.2 0.072495
20.245 0.0601919
20.29 0.0326657
20.335 0.0205183
20.38 0.0185536
20.425 0.0522276
20.47 0.00792965
20.515 0.041575
20.56 0.0207858
20.605 0.0267167
20.65 0.0201018
20.695 0.0246864
20.74 0.0328313
20.785 0.0671533
20.83 -0.00319057
20.875 0.0298155
20.92 0.0529376
20.965 0.0238662
21.01 0.0626565
21.055 0.0864096
21.1 0.0321614
21.145 0.107342
21.19 0.00812408
21.235 0.067584
21.28 0.0295547
21.325 0.0249134
21.37 0.0444558
21.415 0.0164192
21.46 0.0745622
21.505 0.0126532
21.55 0.070996
21.595 0.042158
21.64 0.064143
21.685 0.028577
21.73 0.0636536
21.775 -0.0150712
21.82 0.0492966
21.865 0.0288138
21.91 0.0506369
21.955 0.0466271
22 0.0546982
22.045 0.0493295
22.09 0.0220399
22.135 -1.28392e-05
22.18 -0.00556304
22.225 0.0261148
22.27 0.00716385
22.315 -0.0203654
22.36 0.0238744
22.405 0.0209438
22.45 0.013394
22.495 -0.00487345
22.54 0.0533694
22.585 0.0592416
22.63 0.0185239
22.675 0.0378946
22.72 0.000384275
22.765 0.0606026
22.81 0.0366388
22.855 0.0604739
22.9 0.0066063
22.945 0.0265026
22.99 0.0368698
23.035 -0.00314024
23.08 0.0494378
23.125 0.0211141
23.17 0.0670627
23.215 0.0790552
23.26 0.100098
23.305 0.0718865
23.35 0.104729
23.395 0.189603
23.44 0.327605
23.485 0.660077
23.53 1.02605
23.575 1.38246
23.62 1.16996
23.665 0.825816
23.71 0.428712
23.755 0.124804
23.8 0.104632
23.845 0.108356
23.89 0.0786148
23.935 0.0523991
23.98 0.0676177
24.025 0.0511608
24.07 0.0491517
24.115 0.0837238
24.16 0.064663
24.205 0.0832324
24.25 0.0778088
24.295 0.0480019
24.34 0.0743955
24.385 0.0308611
24.43 0.0724365
24.475 0.078779
24.52 0.0538305
24.565 0.0521026
24.61 0.0284659
24.655 0.0379144
24.7 0.0763191
24.745 0.105996
24.79 0.00061824
24.835 0.0373138
24.88 0.0583389
24.925 0.0215508
24.97 0.0705592
25.015 0.07302
25.06 0.053835
25.105 -0.0123958
25.15 0.0907153
25.195 0.0744042
25.24 0.0874219
25.285 0.0799105
25.33 0.0656067
25.375 0.045006
25.42 0.0700335
25.465 0.0246217
25.51 0.0282391
25.555 0.0540911
25.6 0.0108367
25.645 0.061084
25.69 0.00642512
25.735 0.0481056
25.78 0.0172773
25.825 0.0633181
25.87 0.00842213
25.915 0.0257899
25.96 -0.00351993
26.005 0.0443997
26.05 0.0850167
26.095 0.0401866
26.14 0.0772461
26.185 0.0456921
26.23 0.00738072
26.275 0.0358501
26.32 0.0348655
26.365 0.0153943
26.41 -0.00185029
26.455 0.0368728
26.5 -0.000655302
26.545 0.0392425
26.59 0.0227264
26.635 0.024113
26.68 -0.00935345
26.725 0.0256691
26.77 0.0311368
26.815 0.0438012
26.86 0.0585119
26.905 0.0310703
26.95 0.0603452
26.995 0.0390582
27.04 0.0216148
27.085 0.0568977
27.13 0.0352858
27.175 0.0396957
27.22 0.0775759
27.265 0.0682323
27.31 0.00776226
27.355 0.0533572
27.4 0.0616328
27.445 0.0679835
27.49 0.069945
27.535 0.0388373
27.58 0.0484401
27.625 0.0452459
27.67 0.00528282
27.715 0.0640942
27.76 0.0454111
27.805 0.0541379
27.85 0.03776
27.895 0.0575973
27.94 0.0534232
27.985 0.050464
28.03 0.0361139
28.075 -0.000469487
28.12 0.00499754
28.165 0.0152742
28.21 -0.00128233
28.255 -0.00353026
28.3 -0.013613
28.345 0.011137
28.39 0.0329061
28.435 0.000227012
28.48 0.00917832
28.525 0.049731
28.57 0.0119367
28.615 0.0411389
28.66 0.043914
28.705 0.0593533
28.75 0.107456
28.795 0.127151
28.84 0.124726
28.885 0.0731354
28.93 0.0955829
28.975 0.0524119
29.02 -0.0128464
29.065 0.0419176
29.11 0.0506173
29.155 0.0261738
29.2 0.0238596
29.245 0.0558448
29.29 0.0479506
29.335 0.00221485
29.38 -0.0105928
29.425 0.0365385
29.47 0.0791045
29.515 0.0494687
29.56 0.0374369
29.605 0.0686372
29.65 0.0779867
29.695 0.0396317
29.74 0.0683404
29.785 0.045836
29.83 0.124454
29.875 0.0963807
29.92 0.203707
29.965 0.310707
30.01 0.73815
30.055 1.44668
30.1 2.39844
30.145 2.64204
30.19 2.1611
30.235 1.37574
30.28 0.739791
30.325 0.478888
30.37 0.244889
30.415 0.12434
30.46 0.0740721
30.505 0.0631752
30.55 0.00468001
30.595 0.0354889
30.64 0.0432351
30.685 0.032859
30.73 -0.0237637
30.775 0.0583111
30.82 0.0518733
30.865 0.0221855
30.91 0.084284
30.955 0.0405428
31 0.0438476
31.045 0.0205098
31.09 0.0437839
31.135 0.0375282
31.18 0.0147888
31.225 0.0376942
31.27 0.0499207
31.315 0.0451703
31.36 0.018401
31.405 -0.00356299
31.45 0.0333988
31.495 0.0421761
31.54 0.0252196
31.585 0.0201814
31.63 0.0535825
31.675 0.03119
31.72 0.0155183
31.765 0.0586757
31.81 0.0270904
31.855 0.0162094
31.9 0.0418031
31.945 0.0278088
31.99 0.0531319
32.035 0.0226417
32.08 0.0453013
32.125 0.0140413
32.17 0.0074591
32.215 0.0336694
32.26 0.0415651
32.305 0.0465684
32.35 0.00721357
32.395 0.0317113
32.44 0.0463984
32.485 0.0536961
32.53 -0.0229594
32.575 0.0555937
32.62 0.00620767
32.665 0.0389769
32.71 0.0329215
32.755 0.0606794
32.8 0.00505494
32.845 -0.0218391
32.89 -0.0047066
32.935 0.0191398
32.98 0.0310203
33.025 0.0294675
33.07 0.000660326
33.115 0.00571741
33.16 -0.00301724
33.205 0.0177624
33.25 0.00881325
33.295 0.0100601
33.34 0.0259229
33.385 0.00747566
33.43 -0.00109786
33.475 0.0213966
33.52 -0.00299624
33.565 0.00947091
33.61 0.0234588
33.655 0.024336
33.7 -0.00725082
33.745 0.0184286
33.79 -0.0181173
33.835 0.00591762
33.88 -0.0101331
33.925 -0.0074912
33.97 0.0138579
34.015 0.0150445
34.06 0.00564899
34.105 0.0129472
34.15 -0.0143149
34.195 -0.0121811
34.24 0.0108212
34.285 0.0263156
34.33 0.0155998
34.375 -0.0102038
34.42 -9.36608e-05
34.465 0.0247593
34.51 0.0303639
34.555 0.0656953
34.6 0.0912496
34.645 0.127515
34.69 0.195845
34.735 0.288148
34.78 0.398371
34.825 0.461078
34.87 0.501589
34.915 0.408779
34.96 0.273061
35.005 0.16344
35.05 0.0898916
35.095 0.0295137
35.14 0.0278384
35.185 -0.00337112
35.23 0.0250398
35.275 0.0166374
35.32 -0.0107845
35.365 0.0115052
35.41 0.00922308
35.455 0.000993801
35.5 0.0199392
35.545 0.0106738
35.59 -0.0102917
35.635 0.0211559
35.68 0.0363545
35.725 0.0325147
35.77 0.0266499
35.815 0.0181745
35.86 0.0439724
35.905 0.053519
35.95 0.0754681
35.995 0.120885
36.04 0.153923
36.085 0.206981
36.13 0.3544
36.175 0.651535
36.22 1.29543
36.265 2.4065
36.31 3.70769
36.355 4.25706
36.4 4.00598
36.445 2.92876
36.49 1.85781
36.535 0.925636
36.58 0.434581
36.625 0.2256
36.67 0.129428
36.715 0.0839323
36.76 0.0646651
36.805 0.0314459
36.85 0.0439165
36.895 0.00298236
36.94 0.0666301
36.985 0.0292948
37.03 0.0220197
37.075 0.0208101
37.12 0.0185171
37.165 0.0373859
37.21 0.0313313
37.255 0.0537497
37.3 0.0501977
37.345 0.112375
37.39 0.249434
37.435 0.353203
37.48 0.441574
37.525 0.469237
37.57 0.460593
37.615 0.369354
37.66 0.234151
37.705 0.121171
37.75 0.0897756
37.795 0.0383969
37.84 0.00765007
37.885 0.0232259
37.93 -0.00429831
37.975 0.0223278
38.02 0.0015526
38.065 0.0191764
38.11 0.0172305
38.155 0.031128
38.2 0.0127477
38.245 0.00425772
38.29 -0.000266689
38.335 0.0187016
38.38 0.0261417
38.425 0.023661
38.47 0.073108
38.515 0.149771
38.56 0.185741
38.605 0.213194
38.65 0.199566
38.695 0.159128
38.74 0.0953933
38.785 0.0918933
38.83 0.034305
38.875 -0.0035197
38.92 -0.00248765
38.965 0.000421577
39.01 0.0331426
39.055 0.0294194
39.1 0.0059635
39.145 0.0221235
39.19 0.0043559
39.235 0.000589633
39.28 0.00976139
39.325 0.017924
39.37 0.0242583
39.415 -0.00285701
39.46 0.0135133
39.505 0.0173916
39.55 0.0060716
39.595 0.0100797
39.64 8.08119e-05
39.685 0.00321521
39.73 0.0110517
39.775 0.0122938
39.82 -0.00507217
39.865 0.0321774
39.91 0.0266888
39.955 0.0384495
40 0.0868366
40.045 0.0698398
40.09 0.0973523
40.135 0.0889363
40.18 0.0411387
40.225 0.0571926
40.27 -0.0204747
40.315 0.029895
40.36 0.0077277
40.405 0.00308372
40.45 0.0158075
40.495 0.010474
40.54 0.0237212
40.585 -0.00439551
40.63 0.00147553
40.675 0.0278652
40.72 0.0372673
40.765 0.0142101
40.81 0.0388538
40.855 0.0461857
40.9 0.031699
40.945 0.0325349
40.99 0.0257061
41.035 0.0303889
41.08 0.0120089
41.125 -0.00380818
41.17 0.031181
41.215 0.0803079
41.26 0.179794
41.305 0.333984
41.35 0.615005
41.395 1.08703
41.44 1.62852
41.485 1.90908
41.53 1.58269
41.575 1.08844
41.62 0.560893
41.665 0.229399
41.71 0.112583
41.755 0.0591073
41.8 0.0343347
41.845 0.00751022
41.89 0.00527287
41.935 -0.00524961
41.98 0.021622
42.025 0.0383295
42.07 0.0576755
42.115 0.0163998
42.16 0.00754698
42.205 0.0263863
42.25 0.0256464
42.295 -0.00795401
42.34 -0.0159685
42.385 -0.00630554
42.43 0.0184828
42.475 0.027701
42.52 0.0223432
42.565 0.0264796
42.61 0.0160096
42.655 0.0169057
42.7 0.0235422
42.745 0.00423002
42.79 0.0279448
42.835 0.023266
42.88 0.00924472
42.925 0.0248059
42.97 -0.0189785
43.015 0.00639081
43.06 0.0358776
43.105 0.0214977
43.15 0.021253
43.195 -0.00181117
43.24 -0.00422474
43.285 0.0162182
43.33 0.0241391
43.375 0.0121962
43.42 0.0492301
43.465 0.019072
43.51 0.0422295
43.555 0.0202296
43.6 0.0116417
43.645 0.0240254
43.69 0.0126669
43.735 0.0360911
43.78 0.0269946
43.825 0.0259192
43.87 0.0288989
43.915 -0.0185181
43.96 0.0180019
44.005 0.022905
44.05 0.00498548
44.095 0.0253893
44.14 0.0138641
44.185 0.00195605
44.23 0.00845451
44.275 0.00795895
44.32 0.0489419
44.365 -0.000964474
44.41 0.0221857
44.455 0.0491076
44.5 0.0199209
44.545 0.0422218
44.59 0.0689818
44.635 0.121998
44.68 0.116302
44.725 0.126627
44.77 0.154218
44.815 0.163898
44.86 0.132254
44.905 0.145733
44.95 0.0929836
44.995 0.0381369
45.04 -0.00318804
45.085 0.00929734
45.13 0.0358814
45.175 0.0431786
45.22 0.00703025
45.265 0.0511489
45.31 0.0165141
45.355 0.0106276
45.4 0.0461825
45.445 0.0146504
45.49 0.00918752
45.535 -0.00713801
45.58 0.020734
45.625 -0.0174844
45.67 -0.00278285
45.715 0.0043891
45.76 0.0144283
45.805 0.0208949
45.85 0.00995887
45.895 0.00636631
45.94 -0.0162071
45.985 0.029913
46.03 -0.013558
46.075 0.0455605
46.12 0.0291748
46.165 0.0575291
46.21 0.0622656
46.255 0.103377
46.3 0.119687
46.345 0.107622
46.39 0.0370431
46.435 0.0308377
46.48 0.0308068
46.525 0.0154651
46.57 0.0122387
46.615 0.00170224
46.66 0.0130719
46.705 0.0104483
46.75 0.00286264
46.795 0.00356569
46.84 0.0203561
46.885 -0.0194932
46.93 0.0213846
46.975 0.0173273
47.02 0.0135034
47.065 0.0206533
47.11 0.035331
47.155 -0.0192002
47.2 0.000816066
47.245 0.0213355
47.29 0.0274458
47.335 0.0504152
47.38 0.049199
47.425 0.0736363
47.47 0.0912002
47.515 0.0729649
47.56 0.0846104
47.605 0.126532
47.65 0.158379
47.695 0.151004
47.74 0.185469
47.785 0.160512
47.83 0.181808
47.875 0.237846
47.92 0.294471
47.965 0.410281
48.01 0.631464
48.055 1.12984
48.1 2.16516
48.145 3.59987
48.19 4.45901
48.235 3.99702
48.28 3.23156
48.325 2.28832
48.37 1.6763
48.415 1.08276
48.46 0.679088
48.505 0.425222
48.55 0.244627
48.595 0.129145
48.64 0.127604
48.685 0.0900119
48.73 0.0857945
48.775 0.110001
48.82 0.096394
48.865 0.0718492
48.91 0.104317
48.955 0.117693
49 0.125611
49.045 0.173695
49.09 0.193085
49.135 0.197142
49.18 0.231282
49.225 0.257674
49.27 0.221042
49.315 0.178237
49.36 0.116444
49.405 0.0937619
49.45 0.060513
49.495 0.0167569
49.54 0.0445635
49.585 0.0179374
49.63 0.0265019
49.675 0.0267198
49.72 0.0224993
49.765 0.0438269
49.81 0.042075
49.855 0.0841586
49.9 0.0683105
49.945 0.124915
49.99 0.155133
50.035 0.234237
50.08 0.377378
50.125 0.553086
50.17 0.847651
50.215 1.15822
50.26 1.40543
50.305 1.76357
50.35 1.99381
50.395 2.11479
50.44 2.00052
50.485 1.53404
50.53 0.857986
50.575 0.468417
50.62 0.230597
50.665 0.126251
50.71 0.0805352
50.755 0.0572274
50.8 0.0387413
50.845 0.0458049
50.89 0.022694
50.935 0.00769901
50.98 0.0116804
51.025 0.0268456
51.07 0.0159591
51.115 0.0218723
51.16 0.0106719
51.205 0.0146059
51.25 -0.000547952
51.295 -0.00205782
51.34 0.0101338
51.385 0.0075078
51.43 0.0119582
51.475 0.000156133
51.52 0.0137188
51.565 0.0238593
51.61 0.0280801
51.655 0.0444932
51.7 0.0568028
51.745 0.0504888
51.79 0.073639
51.835 0.112195
51.88 0.13109
51.925 0.162369
51.97 0.146909
52.015 0.14109
52.06 0.166445
52.105 0.201845
52.15 0.198663
52.195 0.172495
52.24 0.156495
52.285 0.0994701
52.33 0.05053
52.375 0.0200814
52.42 0.0165512
52.465 0.00421182
52.51 -0.00990324
52.555 0.00697697
52.6 -0.00889247
52.645 -0.0078021
52.69 -0.0092795
52.735 0.00680317
52.78 0.00882264
52.825 0.00673601
52.87 0.0267975
52.915 0.0289911
52.96 0.0149481
53.005 0.0405341
53.05 0.021621
53.095 0.00726742
53.14 -9.35387e-05
53.185 0.00481838
53.23 -0.00669975
53.275 0.0136212
53.32 0.0306948
53.365 -0.0154495
53.41 -0.0187712
53.455 -0.0049936
53.5 0.00452058
53.545 -0.00366032
53.59 0.0216885
53.635 0.00542444
53.68 0.0168709
53.725 0.0455585
53.77 0.0337378
53.815 0.0410072
53.86 0.0289427
53.905 0.0618768
53.95 0.0382908
53.995 0.029486
54.04 0.0226405
54.085 -0.0034025
54.13 0.00383411
54.175 -0.00345435
54.22 0.0139719
54.265 0.0122135
54.31 0.00117477
54.355 -0.014077
54.4 0.00384414
54.445 0.0107158
54.49 0.0118249
54.535 0.0139851
54.58 -0.0131581
54.625 0.0183022
54.67 0.0226411
54.715 -0.00955916
54.76 0.00332295
54.805 -0.000442329
54.85 0.002113
54.895 0.00321156
54.94 0.0136821
54.985 0.00269181
55.03 0.0219238
55.075 0.0329404
55.12 0.0210227
55.165 0.0325713
55.21 0.0312227
55.255 0.0235507
55.3 0.0366563
55.345 0.0109722
55.39 0.018803
55.435 0.00578619
55.48 0.014023
55.525 0.0184132
55.57 0.0313854
55.615 -0.00745708
55.66 0.0130287
55.705 0.00214877
55.75 0.0132183
55.795 0.0103511
55.84 0.0227641
55.885 0.00647718
55.93 -0.00125936
55.975 0.00457043
56.02 0.00165147
56.065 0.0231758
56.11 0.0142813
56.155 0.0242578
56.2 0.0423856
56.245 0.0576759
56.29 0.0347616
56.335 0.0501001
56.38 0.0522153
56.425 0.0477399
56.47 0.0389655
56.515 0.0300102
56.56 0.011305
56.605 0.0310789
56.65 -0.0115274
56.695 -0.0133685
56.74 0.00682089
56.785 0.00993633
56.83 0.0342315
56.875 0.0369778
56.92 0.0291919
56.965 0.0749021
57.01 0.0670064
57.055 0.0723082
57.1 0.0865308
57.145 0.0777552
57.19 0.05856
57.235 0.0454912
57.28 0.0522472
57.325 0.0519385
57.37 0.0659093
57.415 0.0486579
57.46 0.0522207
57.505 0.050071
57.55 0.0510032
57.595 0.0883239
57.64 0.151564
57.685 0.196339
57.73 0.282106
57.775 0.348666
57.82 0.450448
57.865 0.593018
57.91 0.742128
57.955 0.952623
58 1.11139
58.045 0.864931
58.09 0.615847
58.135 0.415746
58.18 0.271225
58.225 0.207251
58.27 0.145914
58.315 0.0887527
58.36 0.0526582
58.405 0.02167
58.45 0.0107257
58.495 0.0102872
58.54 0.00574468
58.585 -0.0125888
58.63 0.0120888
58.675 0.00105018
58.72 0.0230251
58.765 0.0163301
58.81 -0.0107605
58.855 0.0415554
58.9 0.011109
58.945 0.0383302
58.99 0.0240759
59.035 0.0354838
59.08 0.0017172
59.125 0.037892
59.17 -0.00362967
59.215 0.0197942
59.26 0.00982633
59.305 0.00349525
59.35 0.00527713
59.395 0.0518169
59.44 0.0387256
59.485 0.0120366
59.53 0.0313591
59.575 0.00782026
59.62 0.0153494
59.665 0.0259157
59.71 -0.00900054
59.755 0.01809
59.8 0.0152479
59.845 0.0299921
59.89 0.0121581
59.935 0.0410557
59.98 0.0189117
60.025 0.0291935
60.07 0.0145519
60.115 0.0329533
60.16 0.00777132
60.205 0.00499672
60.25 -0.00444432
60.295 0.0355681
60.34 0.0115499
60.385 0.00913902
60.43 -0.00725594
60.475 0.00740574
60.52 0.0117406
60.565 0.0138441
60.61 0.027375
60.655 0.00742548
60.7 0.0238097
60.745 0.0356211
60.79 -0.00975404
60.835 0.014163
60.88 0.0233234
60.925 -0.017668
60.97 0.00856829
61.015 0.0159085
61.06 0.0267107
61.105 0.0114188
61.15 -0.00587013
61.195 0.0363283
61.24 0.0357854
61.285 0.00445612
61.33 0.0264712
61.375 0.00935438
61.42 0.0278583
61.465 0.0447423
61.51 0.0704446
61.555 0.0804337
61.6 0.0943241
61.645 0.163625
61.69 0.176599
61.735 0.232813
61.78 0.388881
61.825 0.457841
61.87 0.562447
61.915 0.658397
61.96 0.67631
62.005 0.655485
62.05 0.56307
62.095 0.384872
62.14 0.303667
62.185 0.186322
62.23 0.106447
62.275 0.105523
62.32 0.0703335
62.365 0.149067
62.41 0.132287
62.455 0.164243
62.5 0.168105
62.545 0.149837
62.59 0.201623
62.635 0.186439
62.68 0.187062
62.725 0.171987
62.77 0.190839
62.815 0.151603
62.86 0.140415
62.905 0.107634
62.95 0.112
62.995 0.0808385
63.04 0.0429542
63.085 0.0138397
63.13 0.0306254
63.175 0.0156128
63.22 0.0473147
63.265 -0.0178494
63.31 0.0142231
63.355 0.0212382
63.4 0.0172753
63.445 0.0438632
63.49 0.0164161
63.535 0.0434613
63.58 0.0221694
63.625 0.0231357
63.67 0.027079
63.715 0.0133076
63.76 -0.00324948
63.805 0.000933346
63.85 0.0100259
63.895 0.0223373
63.94 0.0128444
63.985 0.00310479
64.03 -0.0125667
64.075 0.00612733
64.12 0.00375574
64.165 0.00953471
64.21 -0.00935072
64.255 0.00101926
64.3 0.00822432
64.345 0.0167299
64.39 0.0101931
64.435 0.000176713
64.48 -0.00270259
64.525 -0.00079808
64.57 0.0313983
64.615 0.0135183
64.66 0.035085
64.705 0.0388587
64.75 0.0328992
64.795 0.05456
64.84 0.0945886
64.885 0.122819
64.93 0.122688
64.975 0.0800865
65.02 0.0565814
65.065 0.0594379
65.11 0.0863969
65.155 0.0584188
65.2 0.0518987
65.245 0.0278049
65.29 0.0410983
65.335 0.0227798
65.38 0.0448795
65.425 0.0507296
65.47 0.0106015
65.515 0.0527403
65.56 0.0235007
65.605 0.0372411
65.65 0.0107819
65.695 -0.00120584
65.74 0.0259966
65.785 -0.00186155
65.83 -0.0135065
65.875 0.0262638
65.92 0.00436731
65.965 0.019008
66.01 0.0115291
66.055 0.0199373
66.1 0.0100481
66.145 -0.00734798
66.19 0.000179638
66.235 0.00584205
66.28 0.0124488
66.325 0.0185727
66.37 -0.0113613
66.415 0.02065
66.46 0.0203977
66.505 -0.00222767
66.55 0.0124682
66.595 0.0132019
66.64 0.0272382
66.685 0.0171266
66.73 0.00709852
66.775 0.0110654
66.82 0.0090002
66.865 0.017452
66.91 0.0110245
66.955 0.0105465
67 0.0171685
67.045 0.00655992
67.09 0.00534267
67.135 0.0161547
67.18 0.00458119
67.225 -0.00867725
67.27 -0.000597584
67.315 0.00326812
67.36 0.00674128
67.405 -0.00994239
67.45 0.016248
67.495 0.00898643
67.54 0.0110537
67.585 0.0113067
67.63 0.0575221
67.675 0.0552687
67.72 0.0737264
67.765 0.0505433
67.81 0.0356986
67.855 0.0492196
67.9 0.0558143
67.945 0.0299572
67.99 0.048572
68.035 0.0423045
68.08 0.0480869
68.125 0.05592
68.17 0.0453228
68.215 0.0370871
68.26 0.0253124
68.305 0.0312122
68.35 0.0165075
68.395 0.0162657
68.44 0.00660481
68.485 0.0119776
68.53 0.00342892
68.575 0.0308567
68.62 -0.000585726
68.665 -0.00057201
68.71 0.0063493
68.755 0.00255386
68.8 0.00617509
68.845 0.0341017
68.89 0.00693616
68.935 0.0087235
68.98 0.0154606
69.025 -0.00525271
69.07 -0.00368842
69.115 0.00404865
69.16 0.0193412
69.205 0.00770462
69.25 0.0052887
69.295 0.011264
69.34 -0.00398409
69.385 0.00208478
69.43 0.000721669
69.475 0.00341844
69.52 -0.00376595
69.565 0.0142845
69.61 0.0309569
69.655 0.0108183
69.7 0.0144667
69.745 -0.00316591
69.79 0.00594562
69.835 0.00835341
69.88 0.019222
69.925 0.0083886
69.97 0.048383
70.015 0.034762
70.06 0.0375064
70.105 0.0319301
70.15 0.0191029
70.195 0.0293381
70.24 0.0194891
70.285 0.0104393
70.33 0.0352063
70.375 0.000944087
70.42 0.024562
70.465 0.0089834
70.51 -0.00885319
70.555 0.0218002
70.6 0.00699584
70.645 0.0220782
70.69 0.0106551
70.735 0.0161037
70.78 0.0298531
70.825 0.0417558
70.87 0.0282021
70.915 0.0564355
70.96 0.114245
71.005 0.14699
71.05 0.202568
71.095 0.22619
71.14 0.329748
71.185 0.369712
71.23 0.438148
71.275 0.480598
71.32 0.464885
71.365 0.488083
71.41 0.46262
71.455 0.402194
71.5 0.345537
71.545 0.256411
71.59 0.175106
71.635 0.13659
71.68 0.0920134
71.725 0.0732254
71.77 0.039562
71.815 0.0215739
71.86 0.00491243
71.905 0.00293392
71.95 0.00710954
71.995 0.00603906
72.04 0.0138066
72.085 -0.00155473
72.13 0.00809152
72.175 0.0161445
72.22 0.0249388
72.265 0.0296417
72.31 -0.00408622
72.355 0.0118963
72.4 0.0330534
72.445 0.016002
72.49 0.008124
72.535 0.00908104
72.58 0.0102676
72.625 0.00455236
72.67 0.00760821
72.715 -0.0155216
72.76 -0.00714877
72.805 0.00411311
72.85 0.00126038
72.895 -0.00346922
72.94 0.00552808
72.985 0.0213363
73.03 0.0116134
73.075 0.0159167
73.12 0.0151717
73.165 0.0237412
73.21 0.028454
73.255 0.0330881
73.3 0.0138852
73.345 0.0499155
73.39 0.0544878
73.435 0.0761065
73.48 0.0678722
73.525 0.0863101
73.57 0.0919334
73.615 0.0744703
73.66 0.0721529
73.705 0.0485697
73.75 0.0373761
73.795 0.0108574
73.84 0.0245133
73.885 0.00390029
73.93 0.0216306
73.975 0.0115981
74.02 0.00713054
74.065 0.00433481
74.11 -0.00141279
74.155 0.00419675
74.2 0.00664062
74.245 0.0145995
74.29 0.00990656
74.335 0.0246458
74.38 -0.0154669