File: data/xrd/xy/2019-08-02T12_18_03.108790+00_00_LBL_1.xy
'Id: "" Comment: "Integrate frame 20190806_tbutyl_phenylnh30_01_002.gfrmwith cursor Wedge Cursor #1" Operator: "UC Berkeley" Anode: "Co" Scantype: "TwoTheta" TimePerStep: "1200"
20.225 -0.0175202
20.26 0.000193868
20.295 -0.00988323
20.33 0.0142377
20.365 0.0134214
20.4 0.0237853
20.435 0.00487759
20.47 0.0262685
20.505 -0.00552219
20.54 0.0349126
20.575 0.00373796
20.61 -0.00132733
20.645 0.0377083
20.68 0.0270081
20.715 0.0135458
20.75 0.0167953
20.785 0.0397834
20.82 0.0229473
20.855 0.0414683
20.89 0.0344041
20.925 0.0262123
20.96 0.0104227
20.995 0.012601
21.03 0.0211262
21.065 0.0598551
21.1 0.0228144
21.135 0.0452652
21.17 0.0119818
21.205 0.0193221
21.24 0.00238899
21.275 0.0268077
21.31 0.0268148
21.345 0.0329421
21.38 0.00837975
21.415 0.0323537
21.45 0.0554726
21.485 0.0275893
21.52 0.0206677
21.555 -0.00338354
21.59 0.0298994
21.625 0.0126107
21.66 0.0229262
21.695 0.0314158
21.73 0.042825
21.765 -0.00432757
21.8 0.0123062
21.835 0.00241968
21.87 0.0385162
21.905 0.0243067
21.94 0.0580444
21.975 0.0391289
22.01 0.0262667
22.045 0.00805448
22.08 -0.00266807
22.115 0.0208276
22.15 0.0169677
22.185 0.0199206
22.22 0.00180329
22.255 0.00347296
22.29 0.00351487
22.325 0.025515
22.36 0.0454354
22.395 0.0252084
22.43 0.0218957
22.465 0.00533626
22.5 0.0303029
22.535 -0.000572458
22.57 0.0105661
22.605 0.0417911
22.64 0.00987295
22.675 0.0400862
22.71 0.0222387
22.745 0.00829318
22.78 0.000411849
22.815 0.0114884
22.85 0.0101539
22.885 0.00451439
22.92 0.0222768
22.955 0.00128415
22.99 0.0352445
23.025 0.00986162
23.06 0.0180112
23.095 0.0170699
23.13 0.00685371
23.165 0.0233333
23.2 0.0139813
23.235 -0.00770608
23.27 0.0189109
23.305 0.0131888
23.34 0.0100003
23.375 0.0370742
23.41 0.0194689
23.445 0.0307186
23.48 0.00191304
23.515 0.0281779
23.55 0.0205418
23.585 0.0260099
23.62 0.00905454
23.655 -0.0156732
23.69 -0.00566796
23.725 -0.00707638
23.76 0.0262806
23.795 -0.000756944
23.83 -0.0055518
23.865 -0.0085008
23.9 -0.00496994
23.935 0.0106479
23.97 0.00850395
24.005 0.00305931
24.04 0.0151892
24.075 0.0164532
24.11 -0.00401422
24.145 0.00578292
24.18 0.0269067
24.215 0.0444178
24.25 0.02535
24.285 0.0152125
24.32 -0.0142146
24.355 0.00795662
24.39 0.00316065
24.425 -0.00536749
24.46 0.0281757
24.495 -0.00849556
24.53 0.0133413
24.565 0.0144189
24.6 0.00436196
24.635 -0.0141265
24.67 0.0145775
24.705 0.00836422
24.74 0.00867204
24.775 0.0098603
24.81 0.00483687
24.845 0.0649101
24.88 0.000751036
24.915 0.0298464
24.95 0.0467449
24.985 0.040359
25.02 0.0300954
25.055 -0.00116063
25.09 0.0289092
25.125 0.0364627
25.16 0.0157776
25.195 -0.00267032
25.23 0.0283755
25.265 0.014439
25.3 0.0239514
25.335 0.0233259
25.37 0.0234437
25.405 0.0196008
25.44 -0.00506367
25.475 0.0108696
25.51 0.0120614
25.545 0.0169798
25.58 0.0276969
25.615 0.00917053
25.65 -0.00936536
25.685 0.0203715
25.72 0.0135864
25.755 0.000858327
25.79 -0.0159019
25.825 -0.000890043
25.86 0.0227041
25.895 0.0179087
25.93 0.00622045
25.965 0.0030262
26 0.0117746
26.035 0.0133758
26.07 -0.000971063
26.105 0.0274368
26.14 0.0150138
26.175 0.0364948
26.21 0.0441969
26.245 0.0321745
26.28 0.0277932
26.315 0.0374133
26.35 0.0153984
26.385 0.0184664
26.42 0.0207605
26.455 0.0360165
26.49 0.00757545
26.525 0.0101386
26.56 0.00731917
26.595 0.0350482
26.63 0.0328483
26.665 0.0233519
26.7 0.0186732
26.735 0.0219077
26.77 0.022324
26.805 0.023443
26.84 0.00203621
26.875 0.00631251
26.91 0.000297972
26.945 0.00662885
26.98 -0.00533241
27.015 0.0137355
27.05 0.0142722
27.085 0.012743
27.12 0.0156746
27.155 0.0117055
27.19 0.0200314
27.225 0.00780082
27.26 0.0211922
27.295 0.010623
27.33 0.00251654
27.365 0.00779118
27.4 0.0358566
27.435 0.027686
27.47 0.0297992
27.505 0.0315895
27.54 0.0221996
27.575 -0.0011493
27.61 0.00299633
27.645 0.018099
27.68 0.0049933
27.715 0.00774718
27.75 0.00488708
27.785 0.0603082
27.82 0.0868954
27.855 0.111534
27.89 0.159357
27.925 0.183268
27.96 0.203122
27.995 0.146298
28.03 0.0866232
28.065 0.0664694
28.1 0.0360659
28.135 0.0399264
28.17 0.0233848
28.205 0.0124731
28.24 0.0055599
28.275 -0.00721398
28.31 0.00760439
28.345 0.0118219
28.38 0.0284166
28.415 0.0255846
28.45 0.0305205
28.485 0.00595619
28.52 0.0313245
28.555 -0.0154211
28.59 0.017734
28.625 0.0158657
28.66 0.0255194
28.695 -0.00509279
28.73 0.029369
28.765 0.0019274
28.8 0.0217789
28.835 0.0628773
28.87 0.061554
28.905 0.107577
28.94 0.138219
28.975 0.117348
29.01 0.0532766
29.045 0.0610485
29.08 0.0490281
29.115 -0.00485638
29.15 0.0214551
29.185 -0.00794863
29.22 0.00624439
29.255 0.00606432
29.29 -0.00370393
29.325 -0.000817933
29.36 0.00405999
29.395 0.018115
29.43 0.00239819
29.465 -0.00992528
29.5 -0.00901857
29.535 0.0112062
29.57 -0.00210027
29.605 0.00957724
29.64 0.0248482
29.675 0.0050477
29.71 -0.00281663
29.745 0.034578
29.78 0.0577913
29.815 0.00061552
29.85 0.0044686
29.885 -0.0124095
29.92 -0.00488136
29.955 0.00934005
29.99 0.0188977
30.025 0.00550873
30.06 0.0144399
30.095 0.0210715
30.13 0.00914708
30.165 0.0281207
30.2 0.0304055
30.235 -0.00554099
30.27 0.0384266
30.305 0.0328273
30.34 0.033674
30.375 0.0219102
30.41 -0.00089118
30.445 0.0110499
30.48 0.0154224
30.515 0.0185361
30.55 -0.014868
30.585 0.02111
30.62 0.0239543
30.655 -0.00926125
30.69 0.0208049
30.725 0.0136869
30.76 0.0171375
30.795 0.0200155
30.83 0.0207493
30.865 0.0372945
30.9 0.0587436
30.935 0.061325
30.97 0.0756003
31.005 0.0563956
31.04 0.0434085
31.075 0.0168464
31.11 0.00721018
31.145 0.00323004
31.18 0.0059277
31.215 0.00479454
31.25 0.0104503
31.285 0.0115122
31.32 0.0215276
31.355 0.0090443
31.39 0.0102714
31.425 0.00460914
31.46 -0.000173075
31.495 0.00810157
31.53 0.00243192
31.565 0.0121618
31.6 0.0220756
31.635 0.0214949
31.67 0.0056333
31.705 -0.00589706
31.74 0.00406494
31.775 0.0171501
31.81 0.0102668
31.845 0.00396859
31.88 -0.00406614
31.915 0.0137004
31.95 -0.00296156
31.985 0.0192534
32.02 0.00939387
32.055 0.0139249
32.09 0.00191925
32.125 0.00245853
32.16 -0.00179421
32.195 0.00417759
32.23 0.0329947
32.265 0.0429654
32.3 0.0549904
32.335 0.0560374
32.37 0.0983827
32.405 0.117917
32.44 0.121346
32.475 0.0833408
32.51 0.0652702
32.545 0.0370704
32.58 0.0176256
32.615 -0.00303679
32.65 -0.0120914
32.685 0.00629987
32.72 0.00365377
32.755 0.0103158
32.79 0.014033
32.825 -0.000591628
32.86 0.0172304
32.895 0.034146
32.93 0.0497174
32.965 0.0847966
33 0.073688
33.035 0.0783257
33.07 0.0663708
33.105 0.0618703
33.14 0.0327546
33.175 0.00109383
33.21 0.0088032
33.245 0.00680443
33.28 -0.0013773
33.315 0.00386607
33.35 -0.00178277
33.385 -0.00833617
33.42 -0.00158265
33.455 0.00640523
33.49 -0.00185832
33.525 -0.00100703
33.56 -0.00688849
33.595 -0.00819064
33.63 0.00283414
33.665 0.0141963
33.7 0.00771745
33.735 0.000812966
33.77 -0.00477543
33.805 0.0113528
33.84 -0.00560195
33.875 0.00887026
33.91 0.00126567
33.945 0.018197
33.98 0.0164122
34.015 0.00266056
34.05 0.00859926
34.085 0.00366431
34.12 -0.00752403
34.155 -0.00588326
34.19 0.00346892
34.225 -0.0137291
34.26 0.003248
34.295 -0.000454971
34.33 -0.00393723
34.365 0.0122294
34.4 -0.00298792
34.435 0.0153536
34.47 0.0135577
34.505 0.00506049
34.54 0.0168098
34.575 0.0295913
34.61 0.0509342
34.645 0.0663691
34.68 0.0917659
34.715 0.0915267
34.75 0.0867146
34.785 0.0738852
34.82 0.059647
34.855 0.0439538
34.89 0.0351877
34.925 0.0124981
34.96 0.00770211
34.995 0.0167125
35.03 -0.00370531
35.065 0.00235025
35.1 0.00918122
35.135 -0.00355769
35.17 0.00812024
35.205 0.00321226
35.24 0.00526943
35.275 0.00152759
35.31 -0.0105486
35.345 -0.00897434
35.38 0.00667157
35.415 0.0114442
35.45 0.00646419
35.485 0.0292171
35.52 0.023928
35.555 0.00110913
35.59 -0.00358988
35.625 0.00177508
35.66 0.00149054
35.695 0.00900372
35.73 -0.0114051
35.765 -0.0132385
35.8 0.0106402
35.835 -0.0088229
35.87 0.00644671
35.905 0.000460923
35.94 0.00390849
35.975 -0.00873226
36.01 0.00436389
36.045 0.0104334
36.08 -0.00419249
36.115 0.00398878
36.15 0.000168161
36.185 -0.00641616
36.22 -0.0089978
36.255 0.00981774
36.29 0.00291931
36.325 0.0225482
36.36 0.00647393
36.395 -0.00722401
36.43 -2.80551e-05
36.465 0.00459064
36.5 0.000389149
36.535 0.000276765
36.57 0.0050844
36.605 0.00419878
36.64 0.00068082
36.675 -0.00245445
36.71 -0.000608602
36.745 -0.00396921
36.78 0.00471731
36.815 0.000894595
36.85 1.83222e-05
36.885 -0.0095826
36.92 0.00272825
36.955 -0.00479317
36.99 -0.00345851
37.025 0.0133479
37.06 0.00215226
37.095 -0.0122687
37.13 -0.00230597
37.165 -0.0121695
37.2 0.00376903
37.235 -0.00962655
37.27 -0.0010021
37.305 0.00559503
37.34 -0.000310489
37.375 -0.000216964
37.41 0.00512249
37.445 0.00960149
37.48 0.00259671
37.515 -0.00404185
37.55 0.00224249
37.585 0.0052836
37.62 0.0078867
37.655 0.00368184
37.69 0.00471428
37.725 -0.0126314
37.76 -0.000300967
37.795 0.00740395
37.83 0.00996714
37.865 -0.00263472
37.9 -0.000348971
37.935 -0.00341608
37.97 -0.00535753
38.005 -0.00130988
38.04 -0.000400373
38.075 -0.00127637
38.11 0.0129231
38.145 0.0047104
38.18 -0.00155554
38.215 -0.00501536
38.25 -0.0110919
38.285 -0.00267316
38.32 -0.00267997
38.355 0.00355081
38.39 -0.00121808
38.425 -0.00305312
38.46 0.00717884
38.495 0.00260284
38.53 0.00479667
38.565 -0.000748965
38.6 -0.0109908
38.635 0.00523551
38.67 -0.00865466
38.705 0.00226569
38.74 -0.00590897
38.775 -0.00251466
38.81 0.00954653
38.845 0.0070366
38.88 -0.00198114
38.915 0.00438759
38.95 0.00288293
38.985 0.0115701
39.02 -0.000901725
39.055 0.0095621
39.09 0.000159389
39.125 0.000542978
39.16 -0.00619527
39.195 0.00391211
39.23 -0.00558651
39.265 0.00409778
39.3 0.00822134
39.335 -0.00666848
39.37 0.000977422
39.405 0.00284956
39.44 0.00438711
39.475 -0.00842389
39.51 0.0049002
39.545 0.0040485
39.58 0.0052325
39.615 -0.00930167
39.65 0.0011354
39.685 0.0052499
39.72 -0.00111636
39.755 -0.00301167
39.79 0.00246097
39.825 0.00438648
39.86 0.00508517
39.895 -0.000100086
39.93 0.000232225
39.965 0.0111795
40 0.0118416
40.035 0.0199333
40.07 0.00968978
40.105 -0.00452038
40.14 0.0073672
40.175 0.0101711
40.21 -0.00431883
40.245 -0.00966903
40.28 -0.00778777
40.315 0.00450021
40.35 0.00130671
40.385 -0.00991603
40.42 0.0107932
40.455 0.00380865
40.49 0.00555953
40.525 0.017691
40.56 0.0265163
40.595 0.014608
40.63 0.0159021
40.665 0.0125282
40.7 0.00721877
40.735 0.00459074
40.77 -0.00633895
40.805 0.00611322
40.84 -0.00398538
40.875 0.00884387
40.91 0.0066113
40.945 0.00506666
40.98 -0.0088135
41.015 -0.00237141
41.05 -0.00599409
41.085 -0.00391982
41.12 0.00110192
41.155 -0.00137023
41.19 -0.00171101
41.225 -0.00212723
41.26 -0.00351976
41.295 0.0241633
41.33 -0.00361648
41.365 0.0104815
41.4 -0.00510181
41.435 0.00552905
41.47 0.00436877
41.505 0.00641041
41.54 0.0148014
41.575 0.0140837
41.61 0.0169669
41.645 0.0181748
41.68 0.00573208
41.715 -0.00935563
41.75 0.016615
41.785 0.00435789
41.82 0.0069961
41.855 0.014311
41.89 -0.00720525
41.925 -0.00266245
41.96 -0.00178819
41.995 0.0142785
42.03 0.0036752
42.065 0.00230496
42.1 0.0155618
42.135 0.00143391
42.17 -0.00125342
42.205 0.00151837
42.24 0.00256496
42.275 0.00194163
42.31 0.00361205
42.345 0.00108462
42.38 -0.00534111
42.415 0.00949886
42.45 0.0077154
42.485 0.00505747
42.52 0.00530371
42.555 -0.00233184
42.59 0.000286125
42.625 0.00718542
42.66 0.00951691
42.695 0.0117461
42.73 -0.00311715
42.765 0.00585827
42.8 -0.0038745
42.835 0.00329564
42.87 0.00796331
42.905 0.022988
42.94 0.0080873
42.975 0.0103756
43.01 0.00394854
43.045 0.0129585
43.08 0.00928275
43.115 -0.00099094
43.15 0.0112707
43.185 0.0118429
43.22 -0.0095112
43.255 -0.00250519
43.29 0.00592577
43.325 0.000786938
43.36 0.00181771
43.395 0.00128316
43.43 -0.0011118
43.465 0.00280371
43.5 -0.000695037
43.535 0.00109858
43.57 0.000715235
43.605 0.012006
43.64 0.000964282
43.675 0.000871498
43.71 0.0156972
43.745 0.000716819
43.78 0.00321338
43.815 -0.00175926
43.85 0.00430908
43.885 0.00418881
43.92 0.00454835
43.955 0.0100612
43.99 0.00153565
44.025 0.00751254
44.06 -0.00653813
44.095 -0.00710333
44.13 0.00506003
44.165 -0.00726349
44.2 0.00673732
44.235 0.00199983
44.27 0.00132115
44.305 0.000343751
44.34 0.0041922
44.375 0.00397695
44.41 0.0155907
44.445 0.00772384
44.48 0.000940251
44.515 0.000710634
44.55 0.0101535
44.585 0.0165048
44.62 0.00114243
44.655 0.00454464
44.69 0.0140521
44.725 -0.000487178
44.76 0.0134461
44.795 0.00318962
44.83 0.00445812
44.865 -0.00744735
44.9 -0.00699729
44.935 0.0167008
44.97 -0.00623643
45.005 0.00651723
45.04 -0.00158214
45.075 0.00347896
45.11 -0.00514159
45.145 -0.0032053
45.18 0.00267955
45.215 -0.0036883
45.25 0.00396136
45.285 0.00498947
45.32 -0.00606644
45.355 0.00188083
45.39 0.000329187
45.425 0.00158809
45.46 0.0108709
45.495 -0.00914765
45.53 0.00315937
45.565 0.00651134
45.6 0.0014654
45.635 0.014122
45.67 0.00843339
45.705 0.00736842
45.74 -0.00105493
45.775 0.0080244
45.81 -0.00162226
45.845 -0.00071208
45.88 -0.00624272
45.915 -0.00659224
45.95 0.016207
45.985 -0.0018784
46.02 0.0146369
46.055 0.00851672
46.09 -0.00699071
46.125 0.00816071
46.16 -0.00765795
46.195 0.0132589
46.23 -0.00399012
46.265 -0.000633031
46.3 0.00808279
46.335 0.00275506
46.37 0.000401504
46.405 0.00743494
46.44 0.00532717
46.475 -0.000415144
46.51 0.00165124
46.545 -0.0051531
46.58 -0.00323557
46.615 0.00850279
46.65 -1.09755e-05
46.685 0.000977616
46.72 -0.00854426
46.755 0.00864524
46.79 -0.00197808
46.825 -0.00466437
46.86 -0.00501483
46.895 0.00799225
46.93 0.007413
46.965 -0.00142119
47 -0.00621844
47.035 0.00134165
47.07 -0.0061983
47.105 -0.00317459
47.14 8.1653e-05
47.175 -0.00145124
47.21 0.000130287
47.245 0.0120695
47.28 0.0118504
47.315 -0.00644059
47.35 -0.00868147
47.385 0.00351894
47.42 -0.00678195
47.455 -0.00256016
47.49 0.000271092
47.525 -0.00585834
47.56 -0.00440739
47.595 -0.0100957
47.63 0.000470769
47.665 0.00584035
47.7 -0.0100519
47.735 -0.00082502
47.77 0.00355982
47.805 0.00253178
47.84 0.000409132
47.875 -0.00289476
47.91 -0.00552436
47.945 0.00577533
47.98 0.00307691
48.015 -0.00114165
48.05 0.0086417
48.085 0.00223398
48.12 -0.00660232
48.155 0.00431096
48.19 -0.00619295
48.225 -0.000984945
48.26 0.0031136
48.295 -0.00994574
48.33 0.00066215
48.365 0.00170359
48.4 0.00073309
48.435 0.00631923
48.47 -0.00550175
48.505 -0.00350804
48.54 0.00366425
48.575 0.00624656
48.61 0.00662404
48.645 0.00106924
48.68 -0.00403263
48.715 -0.00019674
48.75 0.00135069
48.785 -0.0051961
48.82 0.00115906
48.855 -0.000787262
48.89 -0.00137574
48.925 0.00761445
48.96 0.0089193
48.995 -0.00105598
49.03 0.0179433
49.065 -0.00681275
49.1 -0.000978973
49.135 0.00183435
49.17 -0.00750306
49.205 0.00306417
49.24 -0.0010399
49.275 -0.00379976
49.31 0.00210456
49.345 0.00370977
49.38 0.00228962
49.415 -0.00317862
49.45 0.00289528
49.485 0.00188179
49.52 -0.00773927
49.555 -0.00503263
49.59 -0.00286267
49.625 -0.00632286
49.66 -0.00415245
49.695 0.00149685
49.73 0.00275388
49.765 0.00115572
49.8 -0.00587825
49.835 -0.00309286
49.87 0.00315266
49.905 -0.00552558
49.94 -0.00452564
49.975 0.00198624
50.01 0.000428503
50.045 -0.00264947
50.08 -0.00431687
50.115 -0.00465511
50.15 -0.00705662
50.185 -0.00765999
50.22 -0.000331622
50.255 -0.00424945
50.29 -0.00518729
50.325 0.00265301
50.36 -0.00370449
50.395 -0.00225405
50.43 -0.00656841
50.465 0.00377636
50.5 -0.00242028
50.535 -0.0034313
50.57 -0.00712565
50.605 -0.00638422
50.64 -0.0027097
50.675 -0.00136712
50.71 0.000917216
50.745 -0.0087173
50.78 -0.00143023
50.815 -0.00708183
50.85 -0.00618642
50.885 -0.00379007
50.92 -0.00234699
50.955 0.000607439
50.99 0.0103538
51.025 -0.00135053
51.06 0.00444419
51.095 -0.0070439
51.13 -0.000109891
51.165 -0.00102973
51.2 0.0029781
51.235 -0.00123404
51.27 -0.00145144
51.305 -0.00157079
51.34 0.00569043
51.375 -0.00309792
51.41 -0.000337023
51.445 0.000570916
51.48 -0.00357702
51.515 0.000763014
51.55 -0.00927337
51.585 -0.00552995
51.62 0.00356994
51.655 -0.00928755
51.69 0.00344459
51.725 -0.00330396
51.76 -0.00273389
51.795 -0.00126732
51.83 0.000167495
51.865 -0.00561396
51.9 0.000541999
51.935 0.00396458
51.97 0.00209417
52.005 0.00153913
52.04 -0.00369147
52.075 0.00496088
52.11 0.00137938
52.145 -0.000418326
52.18 -0.00242503
52.215 -0.00218735
52.25 -0.00196767
52.285 0.0023619
52.32 -0.00344849
52.355 0.00216113
52.39 0.00241149
52.425 0.00473164
52.46 0.00336704
52.495 0.0034271
52.53 -0.000165923
52.565 -0.00285519
52.6 -0.00196459
52.635 -0.00544645
52.67 0.00779511
52.705 0.0072601
52.74 -0.002721
52.775 0.00478854
52.81 -0.0058974
52.845 -0.00308781
52.88 0.000587061
52.915 -0.00146267
52.95 0.000614906
52.985 0.00172928
53.02 -0.00382023
53.055 -0.00053436
53.09 -0.00339739
53.125 -0.00476584
53.16 -0.0089558
53.195 0.00338261
53.23 -2.49566e-05
53.265 0.00181982
53.3 0.00471968
53.335 0.00166465
53.37 0.0020104
53.405 0.0103609
53.44 -0.000764072
53.475 -0.00032021
53.51 0.00283946
53.545 -0.000877291
53.58 0.00487146
53.615 0.00655246
53.65 0.00288959
53.685 0.000771376
53.72 0.000641257
53.755 0.00157534
53.79 0.00305678
53.825 -0.00197253
53.86 -0.00586079
53.895 -0.00494346
53.93 -0.00268066
53.965 -0.00102944
54 0.00309369
54.035 -0.00171522
54.07 -0.000117519
54.105 -0.00391574
54.14 -0.00312369
54.175 0.0042531
54.21 -0.000293136
54.245 -0.00451331
54.28 0.00180021
54.315 -0.000427944
54.35 0.00306403
54.385 -0.0058199
54.42 6.61674e-05
54.455 0.00353347
54.49 -0.00811474
54.525 -0.00424238
54.56 0.00578136
54.595 -0.00855858
54.63 -0.00182823
54.665 -0.000794307
54.7 -0.00266115
54.735 0.00110114
54.77 -0.00412436
54.805 -0.00865529
54.84 0.00758585
54.875 0.00388816
54.91 0.00397982
54.945 0.000515126
54.98 0.00303683
55.015 -0.00653883
55.05 -0.00107824
55.085 -0.000287248
55.12 0.00192189
55.155 -0.00788559
55.19 -0.000440452
55.225 -0.00655209
55.26 -0.00418169
55.295 0.00281069
55.33 -0.00636936
55.365 0.00134758
55.4 0.00267386
55.435 0.00187589
55.47 -0.00249841
55.505 -0.00247537
55.54 -0.00308439
55.575 0.00446543
55.61 -0.000102645
55.645 -0.00429325
55.68 -0.00393198
55.715 -0.00485255
55.75 0.00442164
55.785 0.00727437
55.82 0.00646293
55.855 0.00310003
55.89 -0.00579219
55.925 -0.00327271
55.96 0.00505108
55.995 0.00520602
56.03 0.00531965
56.065 0.0061018
56.1 -0.000714599
56.135 -0.00462072
56.17 -0.00159127
56.205 0.00680632
56.24 0.0144346
56.275 0.00803372
56.31 0.00764252
56.345 0.0110301
56.38 0.00794557
56.415 -0.00235598
56.45 0.00214861
56.485 -0.00205261
56.52 0.00144729
56.555 0.00230332
56.59 0.00499652
56.625 -0.00420487
56.66 0.00227526
56.695 -0.000415438
56.73 -0.00436171
56.765 -7.54228e-05
56.8 0.00256511
56.835 0.00580755
56.87 -0.00252953
56.905 0.000720766
56.94 0.00400079
56.975 0.00617923
57.01 -0.0044498
57.045 -0.00372585
57.08 0.000751342
57.115 -0.000708857
57.15 -0.00555566
57.185 0.0023463
57.22 0.00086186
57.255 -0.00232886
57.29 0.00352998
57.325 0.00499386
57.36 -0.00270763
57.395 -0.00708337
57.43 0.00335624
57.465 0.00261465
57.5 0.00126181
57.535 -0.00244848
57.57 -0.00261234
57.605 -0.00154811
57.64 0.00890179
57.675 0.00987637
57.71 0.00575748
57.745 0.00185737
57.78 0.00722095
57.815 -0.0040488
57.85 0.00722843
57.885 0.00612673
57.92 0.00353209
57.955 0.00132958
57.99 0.00442593
58.025 -0.00487679
58.06 0.0014095
58.095 -0.00280014
58.13 0.0124272
58.165 9.49352e-05
58.2 0.00174588
58.235 0.00112361
58.27 -3.48031e-05
58.305 0.00598975
58.34 -1.08153e-05
58.375 -0.00134635
58.41 -0.00221708
58.445 0.00660631
58.48 -0.00437568
58.515 0.00282255
58.55 0.00756686
58.585 0.00692031
58.62 0.0027028
58.655 0.00751475
58.69 0.00694305
58.725 0.00682237
58.76 -0.00798733
58.795 0.00895831
58.83 -0.00315932
58.865 -0.00199593
58.9 -0.00143092
58.935 0.0140697
58.97 0.0101013
59.005 0.00601669
59.04 0.00991287
59.075 0.00582483
59.11 0.00244994
59.145 0.00815496
59.18 0.00605155
59.215 0.017188
59.25 0.00822753
59.285 -0.00236213
59.32 0.00136976
59.355 0.00168997
59.39 0.00140462
59.425 0.00741324
59.46 0.00702763
59.495 0.00451453
59.53 0.00906006
59.565 0.0113721
59.6 -0.00339119
59.635 0.00184029
59.67 -0.00432838
59.705 0.00147382
59.74 -0.00239904
59.775 0.00164706
59.81 -0.00797637
59.845 0.00404268
59.88 -0.0011375
59.915 -0.00562604
59.95 -0.00531238
59.985 0.0144344
60.02 -0.00369769
60.055 0.00658975
60.09 0.00681646
60.125 0.000747893
60.16 -0.00559516
60.195 -0.00307424
60.23 0.00681835
60.265 0.000557919
60.3 0.00354404
60.335 -0.00484798
60.37 0.000951625
60.405 0.00777844
60.44 -0.00735995
60.475 -0.00188422
60.51 0.00374615
60.545 0.00967114
60.58 0.0103841
60.615 0.00665709
60.65 0.00204326
60.685 0.014516
60.72 0.00242569
60.755 0.00285203
60.79 0.00546212
60.825 0.00417452
60.86 -0.00411015
60.895 -0.000900567
60.93 0.0111483
60.965 0.0115564
61 0.00320305
61.035 0.00470803
61.07 -0.000641917
61.105 -0.00308104
61.14 0.000469665
61.175 0.0103497
61.21 0.000571122
61.245 0.0126277
61.28 -0.00628521
61.315 -0.000116674
61.35 -0.00421707
61.385 -0.00160318
61.42 0.0144261
61.455 -0.00101983
61.49 -0.0014486
61.525 0.00188697
61.56 0.00413687
61.595 0.0174791
61.63 -0.00209038
61.665 0.00197583
61.7 -0.00122868
61.735 -0.00453154
61.77 0.00460182
61.805 0.0019956
61.84 0.00637245
61.875 0.00415349
61.91 0.000884161
61.945 -0.00108977
61.98 0.0037299
62.015 0.00103877
62.05 0.00334452
62.085 -0.00405348
62.12 -0.00225864
62.155 0.00386246
62.19 0.00332469
62.225 0.0010155
62.26 0.00887548
62.295 0.00724991
62.33 0.00764409
62.365 0.00354212
62.4 -0.00534337
62.435 0.000203984
62.47 0.00412349
62.505 -0.00431663
62.54 0.0062423
62.575 0.000919426
62.61 0.0021798
62.645 -0.00278575
62.68 -0.00701939
62.715 -0.00198018
62.75 0.00770268
62.785 0.00298575
62.82 -0.00541551
62.855 8.14355e-05
62.89 -0.00272448
62.925 -0.00151258
62.96 0.0057648
62.995 -0.00140768
63.03 -0.00442348
63.065 0.00985612
63.1 -0.00114487
63.135 -0.000428443
63.17 0.00640222
63.205 -0.000502464
63.24 0.00547585
63.275 -0.00130797
63.31 0.00390638
63.345 -0.007434
63.38 -0.00131302
63.415 -0.000547317
63.45 -0.000473714
63.485 0.00159402
63.52 0.0032737
63.555 0.00582925
63.59 0.00485624
63.625 -0.00168878
63.66 0.0046262
63.695 0.00577004
63.73 0.00463951
63.765 0.000269275
63.8 0.00501697
63.835 -0.00236415
63.87 0.00675771
63.905 0.00828677
63.94 -0.000706322
63.975 0.00136577
64.01 0.00197422
64.045 0.00863919
64.08 -0.00731208
64.115 0.00615988
64.15 0.00613898
64.185 0.0124894
64.22 0.0058956
64.255 0.00836194
64.29 -0.00504729
64.325 0.00758547
64.36 0.00236684
64.395 0.00109265
64.43 -0.00544133
64.465 0.00771167
64.5 0.0049257
64.535 0.00547961
64.57 -0.00303744
64.605 -0.000846325
64.64 0.0030646
64.675 0.00351091
64.71 0.00178684
64.745 0.00372869
64.78 0.00341467
64.815 0.000119651
64.85 0.0121328
64.885 0.0047924
64.92 0.000215092
64.955 0.000516309
64.99 -9.56788e-05
65.025 -0.00152173
65.06 -0.000933314
65.095 0.000843871
65.13 -0.00478398
65.165 -0.00410238
65.2 -0.000545456
65.235 0.00308542
65.27 -0.00711745
65.305 -0.000996943
65.34 -0.00527527
65.375 0.00817208
65.41 -0.000811715
65.445 -0.000856367
65.48 0.00184706
65.515 -0.00059806
65.55 -0.000344341
65.585 0.00586482
65.62 0.00261959
65.655 0.00697368
65.69 0.00481878
65.725 -0.00360543
65.76 -0.00111856
65.795 -0.000526895
65.83 -0.00231546
65.865 0.00236394
65.9 -0.00281882
65.935 0.000642715
65.97 -0.000744812
66.005 0.00349912
66.04 0.00404055
66.075 -0.00273214
66.11 0.00396305
66.145 0.00454402
66.18 0.0104849
66.215 0.00417667
66.25 0.00780078
66.285 0.004954
66.32 0.00246272
66.355 0.0100151
66.39 0.000146762
66.425 0.00167371
66.46 -0.00160104
66.495 0.0010129
66.53 -0.000543877
66.565 0.00464661
66.6 -0.000309473
66.635 -0.00140421
66.67 0.00234536
66.705 0.00312732
66.74 -0.00669544
66.775 0.00722154
66.81 0.00148784
66.845 0.00285088
66.88 0.00646549
66.915 -0.00402195
66.95 0.00368925
66.985 0.00744062
67.02 0.0152908
67.055 0.00129258
67.09 0.00403199
67.125 0.00793158
67.16 0.000814675
67.195 0.00250644
67.23 0.0165899
67.265 0.00743916
67.3 0.00745842
67.335 0.00372564
67.37 0.00624109
67.405 -0.000825954
67.44 0.00329622
67.475 0.00209757
67.51 0.00582042
67.545 0.00199885
67.58 0.00258367
67.615 0.00631174
67.65 0.00187462
67.685 -0.00467783
67.72 0.00145907
67.755 0.00202976
67.79 -0.000719729
67.825 0.00546765
67.86 0.00298083
67.895 0.00172356
67.93 0.00393475
67.965 0.00980224
68 0.00354035
68.035 0.00247667
68.07 0.00863965
68.105 0.00623637
68.14 0.00489886
68.175 0.00728958
68.21 0.00541748
68.245 0.00992047
68.28 0.00215322
68.315 0.00153127
68.35 0.00319684
68.385 -0.00173636
68.42 -0.00199316
68.455 -0.00449281
68.49 0.0030963
68.525 0.00480834
68.56 0.00145388
68.595 -0.00121763
68.63 -0.00438003
68.665 8.63883e-05
68.7 -0.00303247
68.735 0.00491776
68.77 0.00350459
68.805 -0.00360592
68.84 0.0028174
68.875 -0.00525188
68.91 -0.002117
68.945 0.00392436
68.98 -0.00549011
69.015 0.000691092
69.05 -0.00603124
69.085 -0.00128858
69.12 0.00602004
69.155 -0.000396137
69.19 -0.000269251
69.225 -0.00117815
69.26 -0.000333562
69.295 0.000724718
69.33 0.0050041
69.365 0.0048032
69.4 -0.00216138
69.435 0.0032165
69.47 0.00338215
69.505 0.000375164
69.54 0.00292674
69.575 0.00490801
69.61 0.000503159
69.645 0.000739593
69.68 0.00592364
69.715 0.00503091
69.75 -0.00269358
69.785 0.00246773
69.82 0.00125938
69.855 0.000137339
69.89 0.00116803
69.925 0.00240863
69.96 0.00180498
69.995 -0.00267191
70.03 -0.00187469
70.065 -0.00309252
70.1 0.00420316
70.135 -0.000163358
70.17 -0.000721803
70.205 -0.00055082
70.24 -0.00371424
70.275 -0.00349738
70.31 -0.00183264
70.345 -0.0029
70.38 0.00115996
70.415 -0.00385509
70.45 0.000741212
70.485 0.00324074
70.52 -0.00423922
70.555 -0.000641528
70.59 -0.00593434
70.625 0.00547976
70.66 -0.00327036
70.695 0.0062602
70.73 0.00133023
70.765 -0.00237748
70.8 -2.62138e-06
70.835 0.000524157
70.87 -0.000957094
70.905 -0.00114054
70.94 -0.00587617
70.975 -0.00378972
71.01 -0.00305951
71.045 -0.000620581
71.08 0.00232354
71.115 -0.00388003
71.15 0.00333528
71.185 -0.00208915
71.22 0.00434746
71.255 0.0022645
71.29 -0.000123643
71.325 0.00553811
71.36 -0.00143407
71.395 -0.0022256
71.43 0.00399155
71.465 -0.00101594
71.5 0.00244064
71.535 -0.00303914
71.57 0.00293857
71.605 0.0032941
71.64 0.000241289
71.675 0.00712292
71.71 0.00480113
71.745 -0.00571457
71.78 0.00329837
71.815 0.00466295
71.85 -0.00116235
71.885 0.00211865
71.92 0.00251579
71.955 0.000534022
71.99 0.00181732
72.025 0.00569283
72.06 -0.00172588
72.095 0.00412062
72.13 0.00581678
72.165 -0.0046758
72.19 -0.00620592