File: data/xrd/xy/2019-06-18T20_54_55.536969+00_00_LBL_A5.xy
'Id: "" Comment: "Integrate frame 20190723_4triFMePh_03_003.gfrmwith cursor Wedge Cursor #2" Operator: "UC Berkeley" Anode: "Co" Scantype: "TwoTheta" TimePerStep: "600.002"
24.875 -0.0238926
24.91 -0.0101423
24.945 0.0589171
24.98 0.00934461
25.015 0.0870612
25.05 0.0419468
25.085 0.0752543
25.12 6.02283e-05
25.155 0.0472909
25.19 0.0355203
25.225 0.0669933
25.26 0.0451437
25.295 0.026735
25.33 0.00647927
25.365 0.0134118
25.4 0.0227293
25.435 0.0512984
25.47 0.0770222
25.505 0.0421332
25.54 0.0458617
25.575 0.060314
25.61 0.0665325
25.645 0.027898
25.68 0.0418614
25.715 0.0196532
25.75 0.0391086
25.785 0.100423
25.82 0.0556411
25.855 0.11406
25.89 0.0494172
25.925 0.0429671
25.96 0.0353865
25.995 0.0317651
26.03 0.0501898
26.065 0.0568419
26.1 0.0930139
26.135 0.0793627
26.17 0.111145
26.205 0.140532
26.24 0.189908
26.275 0.137574
26.31 0.119938
26.345 0.126685
26.38 0.0537642
26.415 0.0508387
26.45 -0.0229429
26.485 0.0204682
26.52 0.0583512
26.555 0.0543853
26.59 0.0651133
26.625 0.00577643
26.66 0.0346693
26.695 0.0394358
26.73 0.00716884
26.765 -0.0102896
26.8 0.00612371
26.835 0.0159489
26.87 0.0306462
26.905 0.00890082
26.94 0.0284351
26.975 0.0355455
27.01 0.054418
27.045 0.0290242
27.08 0.0639252
27.115 0.0648519
27.15 0.0276751
27.185 0.0266845
27.22 0.0982916
27.255 0.0352768
27.29 0.0213231
27.325 0.0656498
27.36 0.0528881
27.395 0.0098243
27.43 0.0307267
27.465 0.0414032
27.5 0.0701975
27.535 0.0901667
27.57 0.0404398
27.605 0.0359777
27.64 0.0607938
27.675 0.0354763
27.71 0.0713852
27.745 0.00775075
27.78 0.0214262
27.815 0.0311365
27.85 0.0611298
27.885 0.0587829
27.92 0.0137218
27.955 0.0530727
27.99 0.0457811
28.025 0.0498132
28.06 0.0671188
28.095 0.0506824
28.13 0.0211042
28.165 -0.00536837
28.2 0.0477775
28.235 0.0345137
28.27 0.0828614
28.305 0.012421
28.34 0.0670354
28.375 0.00225449
28.41 0.0188216
28.445 -0.000540801
28.48 0.0424368
28.515 0.101589
28.55 0.0316939
28.585 0.0190377
28.62 0.02683
28.655 0.00666005
28.69 0.0484344
28.725 0.0285859
28.76 0.0259866
28.795 0.0204739
28.83 0.0425848
28.865 0.0565811
28.9 0.0538422
28.935 0.054049
28.97 0.0626684
29.005 0.00714884
29.04 0.028684
29.075 0.0412141
29.11 0.0461897
29.145 0.0647538
29.18 0.0666734
29.215 0.0369457
29.25 0.0207942
29.285 0.0316886
29.32 0.0133985
29.355 0.0292704
29.39 0.0553726
29.425 0.0598533
29.46 0.0619714
29.495 0.0781203
29.53 0.107851
29.565 0.180288
29.6 0.443662
29.635 0.670428
29.67 0.915539
29.705 1.14935
29.74 1.08753
29.775 0.878958
29.81 0.675107
29.845 0.441115
29.88 0.314786
29.915 0.200156
29.95 0.183004
29.985 0.198145
30.02 0.285369
30.055 0.405999
30.09 0.733275
30.125 1.19901
30.16 1.95561
30.195 2.60135
30.23 3.2017
30.265 3.09849
30.3 2.58033
30.335 1.75254
30.37 1.03396
30.405 0.532102
30.44 0.320349
30.475 0.168977
30.51 0.0843879
30.545 0.0602921
30.58 0.113498
30.615 0.143
30.65 0.0225569
30.685 0.0660404
30.72 0.0524785
30.755 0.059159
30.79 0.0562894
30.825 0.00673667
30.86 -0.0125114
30.895 0.0397579
30.93 0.0117929
30.965 0.00047464
31 0.00378401
31.035 0.0413542
31.07 -0.00223054
31.105 -0.0116448
31.14 0.00440718
31.175 -0.0067657
31.21 0.00205089
31.245 0.0795498
31.28 0.0597563
31.315 0.016305
31.35 0.0173267
31.385 0.0268755
31.42 0.0282726
31.455 0.0594798
31.49 0.0214218
31.525 0.0251256
31.56 0.0119509
31.595 0.00260518
31.63 0.00629661
31.665 -0.00317901
31.7 -0.00743349
31.735 0.0205816
31.77 0.00511377
31.805 0.00386053
31.84 0.00927816
31.875 0.00167857
31.91 0.00400909
31.945 0.0281415
31.98 0.00310225
32.015 0.0142564
32.05 0.00777575
32.085 0.0221465
32.12 -0.0217119
32.155 -0.0141156
32.19 0.0288706
32.225 0.0477668
32.26 -0.0119528
32.295 -0.00527891
32.33 0.0148089
32.365 0.0370718
32.4 0.00633721
32.435 0.00681973
32.47 -0.00374685
32.505 0.0121989
32.54 -0.000446436
32.575 0.00752474
32.61 -0.00816263
32.645 -0.0157825
32.68 0.014564
32.715 0.00475798
32.75 0.0258433
32.785 0.029217
32.82 0.0184186
32.855 0.0135567
32.89 -0.00529198
32.925 0.0332788
32.96 0.0297562
32.995 0.0255575
33.03 0.01619
33.065 0.0441464
33.1 0.0445208
33.135 0.037469
33.17 0.0725527
33.205 0.0257436
33.24 0.0581754
33.275 0.0365829
33.31 0.0407676
33.345 0.0221189
33.38 0.0213713
33.415 0.0345669
33.45 0.0123434
33.485 0.0374476
33.52 0.0224074
33.555 0.0159528
33.59 -0.00022038
33.625 -0.00424753
33.66 0.0149006
33.695 0.0586564
33.73 -0.0074201
33.765 0.0336455
33.8 0.0493392
33.835 0.0261066
33.87 -0.0190832
33.905 0.0545172
33.94 0.0168919
33.975 0.00533294
34.01 0.0156655
34.045 -0.0107304
34.08 0.0202966
34.115 -0.00602507
34.15 -0.00839093
34.185 0.0122759
34.22 0.000879948
34.255 -0.00221519
34.29 -0.00518267
34.325 0.0338926
34.36 0.0298722
34.395 0.0405548
34.43 0.0265061
34.465 0.0343781
34.5 0.0488946
34.535 0.0510573
34.57 0.103701
34.605 0.161235
34.64 0.193806
34.675 0.116538
34.71 0.0752468
34.745 0.0490473
34.78 0.0390867
34.815 0.000125913
34.85 0.0156903
34.885 -0.0052842
34.92 0.0286671
34.955 0.036278
34.99 0.0307099
35.025 0.0213992
35.06 0.0418366
35.095 0.0500386
35.13 0.0242784
35.165 0.0213691
35.2 -0.00262178
35.235 -0.00727915
35.27 -0.004566
35.305 -0.00386019
35.34 -0.0213535
35.375 0.0314556
35.41 0.0264485
35.445 0.00600186
35.48 0.00266713
35.515 0.0352522
35.55 -0.00796006
35.585 0.0141247
35.62 0.030163
35.655 0.000883613
35.69 -0.00841174
35.725 0.0352964
35.76 0.0323372
35.795 0.0033942
35.83 0.0159618
35.865 -0.00367815
35.9 0.0152596
35.935 0.0170358
35.97 0.0268617
36.005 -0.00937579
36.04 0.0356589
36.075 0.0363102
36.11 0.0250609
36.145 0.0345442
36.18 0.0198462
36.215 0.0197676
36.25 0.0555246
36.285 0.0176283
36.32 0.037815
36.355 0.0361336
36.39 0.0402286
36.425 0.0141282
36.46 0.0049729
36.495 0.0217939
36.53 0.0233733
36.565 0.0170983
36.6 0.00983662
36.635 0.00443184
36.67 -0.00387033
36.705 0.0227942
36.74 0.0332104
36.775 -0.0187459
36.81 0.00825273
36.845 -0.00324838
36.88 0.00784593
36.915 0.0224513
36.95 -0.0122682
36.985 -6.65883e-06
37.02 -0.00223719
37.055 -0.0147436
37.09 -0.00192899
37.125 0.00393557
37.16 0.000125564
37.195 0.0141091
37.23 0.00126663
37.265 0.0189262
37.3 0.00826063
37.335 0.008086
37.37 -0.00551259
37.405 -0.0207856
37.44 0.00393338
37.475 0.00964249
37.51 -0.00117868
37.545 0.00779876
37.58 0.000987658
37.615 0.0233928
37.65 0.00587255
37.685 0.0174402
37.72 -0.00422446
37.755 -0.00290863
37.79 0.00786389
37.825 0.00986428
37.86 0.0199086
37.895 -0.004275
37.93 0.00367018
37.965 -0.00695549
38 -0.00829743
38.035 0.0158216
38.07 0.0142595
38.105 0.0213684
38.14 -0.00327028
38.175 0.0026222
38.21 -0.00349916
38.245 0.01245
38.28 0.026568
38.315 0.00753976
38.35 -0.00189925
38.385 0.000391439
38.42 0.0213452
38.455 0.0270638
38.49 -0.00912694
38.525 0.0253434
38.56 0.029209
38.595 0.0104186
38.63 0.0191701
38.665 0.0239685
38.7 0.0024455
38.735 0.0100217
38.77 0.0222856
38.805 0.018031
38.84 0.060113
38.875 -0.0106656
38.91 0.0311779
38.945 0.00696967
38.98 0.0105555
39.015 0.0100299
39.05 0.00931742
39.085 0.013262
39.12 0.0244551
39.155 0.0111293
39.19 0.0190322
39.225 0.0431997
39.26 0.0325503
39.295 -0.0097859
39.33 0.00833529
39.365 0.0221261
39.4 0.0404399
39.435 0.0379179
39.47 0.0432623
39.505 0.0551628
39.54 0.0581584
39.575 0.0625055
39.61 0.120047
39.645 0.0846382
39.68 0.140054
39.715 0.164241
39.75 0.19155
39.785 0.269712
39.82 0.362415
39.855 0.610301
39.89 0.876478
39.925 1.26608
39.96 1.80382
39.995 2.25924
40.03 2.63447
40.065 2.8379
40.1 2.87971
40.135 2.65583
40.17 2.17324
40.205 1.61442
40.24 1.15011
40.275 0.721691
40.31 0.465733
40.345 0.319539
40.38 0.227746
40.415 0.182275
40.45 0.107111
40.485 0.0881103
40.52 0.0724157
40.555 0.0315261
40.59 0.05003
40.625 0.042382
40.66 0.043749
40.695 0.0134263
40.73 0.0262303
40.765 0.00878654
40.8 0.0350105
40.835 0.0220314
40.87 0.024596
40.905 -0.00528951
40.94 0.00852623
40.975 0.0236933
41.01 0.0344721
41.045 0.0300898
41.08 0.0274399
41.115 0.0288974
41.15 0.0113857
41.185 0.00437711
41.22 -0.00185842
41.255 0.00259432
41.29 0.0339713
41.325 0.0251286
41.36 0.00979715
41.395 0.0200014
41.43 -0.00165685
41.465 0.0122275
41.5 0.00335814
41.535 0.0200228
41.57 0.00777823
41.605 0.00857194
41.64 0.00226993
41.675 0.00271561
41.71 0.00426556
41.745 0.0250614
41.78 0.00592629
41.815 0.0367223
41.85 0.0164851
41.885 -0.0139327
41.92 0.000536108
41.955 -0.0128346
41.99 0.0354312
42.025 0.000957968
42.06 0.0338905
42.095 0.00478518
42.13 -0.0200424
42.165 0.0101186
42.2 0.000553807
42.235 0.0127977
42.27 -0.0022809
42.305 -0.0109427
42.34 0.00436354
42.375 0.0096958
42.41 0.0227754
42.445 -0.00079593
42.48 0.019891
42.515 -0.00424264
42.55 -0.0172316
42.585 0.0261228
42.62 0.0273226
42.655 0.0286459
42.69 0.033109
42.725 0.000678048
42.76 -0.0153907
42.795 0.00258002
42.83 -0.00473995
42.865 0.012826
42.9 0.0174576
42.935 0.00325959
42.97 0.00127127
43.005 -0.00138753
43.04 0.0109864
43.075 0.0250524
43.11 -0.000206307
43.145 0.0427701
43.18 0.0445706
43.215 0.0100054
43.25 0.0137021
43.285 0.0140299
43.32 0.0137308
43.355 0.0293354
43.39 0.0183614
43.425 -0.00826506
43.46 0.0101058
43.495 0.017409
43.53 -0.00747746
43.565 -0.000178839
43.6 0.00836269
43.635 -0.00731753
43.67 0.000519606
43.705 0.0197263
43.74 0.0239715
43.775 0.0238472
43.81 -0.00977886
43.845 0.00228054
43.88 0.0373346
43.915 0.0365697
43.95 0.00243925
43.985 0.0276839
44.02 0.0168362
44.055 0.0188555
44.09 0.0280127
44.125 0.0366956
44.16 0.0489495
44.195 0.0754313
44.23 0.0590376
44.265 0.0450977
44.3 0.0133621
44.335 -0.000915973
44.37 0.0655653
44.405 0.055706
44.44 0.0331846
44.475 0.0179411
44.51 -0.00148759
44.545 0.0641895
44.58 0.0492464
44.615 0.0393514
44.65 0.0199568
44.685 0.0491428
44.72 0.0336467
44.755 0.0821752
44.79 0.0944441
44.825 0.0767155
44.86 0.154123
44.895 0.201316
44.93 0.305399
44.965 0.507366
45 0.771762
45.035 1.29188
45.07 1.97814
45.105 2.69528
45.14 3.23856
45.175 3.56946
45.21 3.83397
45.245 3.71217
45.28 3.34957
45.315 2.84014
45.35 2.14037
45.385 1.47987
45.42 1.01445
45.455 0.622012
45.49 0.38013
45.525 0.219929
45.56 0.152631
45.595 0.0854295
45.63 0.0858042
45.665 0.0388078
45.7 0.0808125
45.735 0.0143681
45.77 0.0465029
45.805 -0.0219982
45.84 0.0262139
45.875 0.0557538
45.91 0.0163917
45.945 0.0217189
45.98 0.0239817
46.015 0.0723243
46.05 0.134927
46.085 0.203962
46.12 0.307815
46.155 0.397785
46.19 0.475477
46.225 0.581087
46.26 0.642556
46.295 0.708291
46.33 0.771362
46.365 0.800229
46.4 0.657122
46.435 0.582307
46.47 0.366979
46.505 0.294059
46.54 0.162494
46.575 0.104606
46.61 0.0644612
46.645 0.0426766
46.68 -0.00758962
46.715 0.00314455
46.75 -0.00356733
46.785 0.0226898
46.82 -0.0048239
46.855 0.02024
46.89 0.029168
46.925 -0.00197866
46.96 0.0228735
46.995 0.0285372
47.03 0.0133563
47.065 -0.00342872
47.1 0.00243418
47.135 -0.00688706
47.17 0.00754109
47.205 0.0123309
47.24 0.00501803
47.275 0.00951583
47.31 0.00893771
47.345 0.0157652
47.38 0.0205883
47.415 0.000123636
47.45 -0.00360734
47.485 0.0462631
47.52 0.00564473
47.555 0.0096833
47.59 0.00764277
47.625 0.0586465
47.66 0.0188176
47.695 0.00742435
47.73 0.0302424
47.765 0.0165428
47.8 0.0228249
47.835 -0.0017057
47.87 0.0213131
47.905 0.0192263
47.94 0.0395202
47.975 0.0183472
48.01 -0.0041227
48.045 0.0309675
48.08 0.0124798
48.115 -0.0179751
48.15 0.00791182
48.185 0.0244273
48.22 0.0297567
48.255 0.025451
48.29 -0.00333098
48.325 0.00345519
48.36 -0.00835175
48.395 0.0240348
48.43 0.0119032
48.465 0.0167982
48.5 -0.00248784
48.535 0.0182126
48.57 0.0321482
48.605 0.0422938
48.64 0.0900596
48.675 0.0804516
48.71 0.146731
48.745 0.147995
48.78 0.18535
48.815 0.197913
48.85 0.227012
48.885 0.25703
48.92 0.208842
48.955 0.2178
48.99 0.173247
49.025 0.161854
49.06 0.0873594
49.095 0.0670596
49.13 0.0436751
49.165 0.0231117
49.2 0.0273469
49.235 -0.00835182
49.27 0.00153219
49.305 0.00322535
49.34 0.00213713
49.375 0.00312604
49.41 -0.00655601
49.445 -0.0066863
49.48 0.00206445
49.515 0.0118128
49.55 -0.00618753
49.585 0.000851359
49.62 0.00810223
49.655 -0.0175313
49.69 -0.00256285
49.725 -0.00363193
49.76 -0.000656754
49.795 -0.0031468
49.83 -0.00274193
49.865 -0.0104232
49.9 -0.00649198
49.935 -0.0115066
49.97 0.0242335
50.005 0.0139208
50.04 0.00134425
50.075 0.0147559
50.11 0.00547076
50.145 -0.00373929
50.18 -0.00703555
50.215 -0.0148259
50.25 0.00711725
50.285 -0.00693268
50.32 0.00546498
50.355 0.014711
50.39 0.0106463
50.425 0.00707059
50.46 0.0146987
50.495 0.0166038
50.53 0.00284853
50.565 0.00156222
50.6 0.0023878
50.635 0.00360518
50.67 0.00474918
50.705 0.026464
50.74 0.0379128
50.775 0.031081
50.81 0.043016
50.845 0.0276613
50.88 0.00609694
50.915 0.00475786
50.95 0.0102893
50.985 0.0282332
51.02 0.00396758
51.055 0.00984123
51.09 -0.00246042
51.125 0.0246107
51.16 -0.018955
51.195 0.00482345
51.23 0.00678726
51.265 -0.00389329
51.3 0.00235621
51.335 0.0068398
51.37 -0.00628524
51.405 0.00593213
51.44 -0.0114863
51.475 -0.0131585
51.51 0.00268603
51.545 -0.0151792
51.58 0.00320541
51.615 0.00253161
51.65 -0.0145515
51.685 -0.00349126
51.72 -0.00196566
51.755 0.00614884
51.79 0.00108738
51.825 -0.0123594
51.86 -0.00966124
51.895 0.0164857
51.93 -0.0154123
51.965 0.00630052
52 0.0100486
52.035 0.0114193
52.07 0.0085995
52.105 0.0292423
52.14 0.012133
52.175 0.00588822
52.21 -0.00913904
52.245 0.00990299
52.28 0.00986924
52.315 0.0401807
52.35 0.0216795
52.385 0.028914
52.42 0.0209213
52.455 0.0446814
52.49 0.0179628
52.525 0.0359734
52.56 0.0378559
52.595 0.0491405
52.63 0.0828438
52.665 0.0937441
52.7 0.134602
52.735 0.184894
52.77 0.236533
52.805 0.322342
52.84 0.463794
52.875 0.619646
52.91 0.757769
52.945 0.956458
52.98 1.08762
53.015 1.18468
53.05 1.16456
53.085 1.14556
53.12 1.04897
53.155 0.998838
53.19 0.882107
53.225 0.704355
53.26 0.557407
53.295 0.406913
53.33 0.3016
53.365 0.193544
53.4 0.139284
53.435 0.0856824
53.47 0.0421018
53.505 0.0458522
53.54 0.0282599
53.575 0.0396127
53.61 0.0147745
53.645 0.0214259
53.68 0.0066505
53.715 0.012959
53.75 0.00167042
53.785 0.000255074
53.82 0.00163238
53.855 0.00732127
53.89 0.0114103
53.925 0.00309371
53.96 -0.00557062
53.995 0.014436
54.03 -0.00791898
54.065 0.0256552
54.1 -0.00262566
54.135 0.00549903
54.17 0.00525741
54.205 -0.0107338
54.24 -0.000738834
54.275 0.0133963
54.31 0.00655619
54.345 0.00763632
54.38 5.53331e-05
54.415 -0.00134796
54.45 0.014725
54.485 0.0134862
54.52 -0.00268475
54.555 0.0168271
54.59 0.00842524
54.625 0.00701913
54.66 0.0204045
54.695 0.0084363
54.73 0.0325005
54.765 -0.00726167
54.8 0.00432212
54.835 0.00928308
54.87 0.0248031
54.905 0.0343152
54.94 0.0240638
54.975 0.00542571
55.01 0.0200893
55.045 0.0334573
55.08 0.04572
55.115 0.0126439
55.15 0.0237981
55.185 0.0442513
55.22 0.0112933
55.255 0.0110447
55.29 -0.00175327
55.325 -0.0137366
55.36 0.0205815
55.395 0.00629368
55.43 0.00372627
55.465 0.000629415
55.5 0.00491781
55.535 0.00281921
55.57 0.0186523
55.605 0.00623318
55.64 0.00356161
55.675 -0.00184208
55.71 -0.000317016
55.745 0.0192834
55.78 0.0272373
55.815 0.00835926
55.85 0.0349685
55.885 0.0343284
55.92 0.0540512
55.955 0.077155
55.99 0.101029
56.025 0.187653
56.06 0.200743
56.095 0.233777
56.13 0.231333
56.165 0.253394
56.2 0.267172
56.235 0.258533
56.27 0.272536
56.305 0.288364
56.34 0.322139
56.375 0.315036
56.41 0.316547
56.445 0.305446
56.48 0.3074
56.515 0.215268
56.55 0.201815
56.585 0.163261
56.62 0.0978404
56.655 0.0788179
56.69 0.0669952
56.725 0.0268257
56.76 0.0434942
56.795 0.0357584
56.83 0.00726371
56.865 -0.0165768
56.9 0.0254547
56.935 -0.0027299
56.97 0.000964773
57.005 0.0185945
57.04 0.0017149
57.075 0.0291445
57.11 0.00161953
57.145 0.0235315
57.18 0.0189828
57.215 -0.00316763
57.25 0.0183299
57.285 0.015253
57.32 0.0190416
57.355 0.00627699
57.39 0.0188833
57.425 0.00307543
57.46 -0.000276327
57.495 0.0242897
57.53 0.0190468
57.565 0.0035937
57.6 0.0293945
57.635 0.00239602
57.67 0.0213293
57.705 -0.00735898
57.74 -0.00219495
57.775 -0.00778751
57.81 0.00416048
57.845 -0.00234375
57.88 -0.00617169
57.915 0.0073219
57.95 0.00784779
57.985 0.00523182
58.02 -0.00338813
58.055 -0.00912746
58.09 0.0171144
58.125 0.0212314
58.16 -0.0147145
58.195 0.0165796
58.23 0.00810608
58.265 0.00715539
58.3 0.00788411
58.335 0.00624585
58.37 -0.00545864
58.405 0.00238953
58.44 -0.00508795
58.475 0.00982945
58.51 0.0116924
58.545 0.0235247
58.58 0.00575382
58.615 0.00376961
58.65 -0.00251908
58.685 -0.000835553
58.72 -0.00739948
58.755 0.0285847
58.79 -0.00616147
58.825 -0.00250834
58.86 0.020522
58.895 0.0232037
58.93 0.0389398
58.965 0.020703
59 0.0538328
59.035 0.0491346
59.07 0.0731967
59.105 0.0739372
59.14 0.0405228
59.175 0.0587931
59.21 0.0167443
59.245 0.0122603
59.28 0.0171323
59.315 0.00947584
59.35 -0.00234651
59.385 0.019055
59.42 0.0406901
59.455 0.0328741
59.49 0.0291318
59.525 -0.01625
59.56 0.0149828
59.595 0.0221278
59.63 0.0133789
59.665 0.0190901
59.7 0.00782225
59.735 0.00720901
59.77 0.0193221
59.805 0.0131814
59.84 0.00611485
59.875 0.0140708
59.91 0.0110977
59.945 0.0114025
59.98 0.00948677
60.015 0.0284605
60.05 0.0162118
60.085 0.00656121
60.12 0.0219547
60.155 -0.00966429
60.19 -0.0115378
60.225 0.0326261
60.26 0.031246
60.295 0.0385203
60.33 0.012723
60.365 0.0153778
60.4 0.0263238
60.435 0.0170322
60.47 -0.00389811
60.505 0.0291777
60.54 0.0274727
60.575 0.0302105
60.61 0.0187597
60.645 0.0225457
60.68 -0.00326233
60.715 -0.00845217
60.75 0.0168498
60.785 -0.00783704
60.82 0.0358126
60.855 0.0035854
60.89 -0.00020069
60.925 0.0410811
60.96 -0.0107142
60.995 0.0254728
61.03 0.0120746
61.065 0.0431721
61.1 0.0487858
61.135 0.0216039
61.17 0.0471548
61.205 0.0654708
61.24 0.100668
61.275 0.141022
61.31 0.202029
61.345 0.302587
61.38 0.447921
61.415 0.574256
61.45 0.778004
61.485 0.931173
61.52 1.14163
61.555 1.39859
61.59 1.54411
61.625 1.65059
61.66 1.64512
61.695 1.63054
61.73 1.5927
61.765 1.43485
61.8 1.24732
61.835 1.0538
61.87 0.840043
61.905 0.6655
61.94 0.490372
61.975 0.376546
62.01 0.254093
62.045 0.155811
62.08 0.1078
62.115 0.0952726
62.15 0.0395981
62.185 0.0541027
62.22 0.0298727
62.255 0.0335994
62.29 -0.0162046
62.325 0.00115664
62.36 0.0213184
62.395 -0.00371484
62.43 0.00801979
62.465 0.039847
62.5 0.0334403
62.535 0.0657825
62.57 0.061257
62.605 0.103901
62.64 0.125419
62.675 0.150878
62.71 0.193104
62.745 0.181853
62.78 0.253518
62.815 0.30392
62.85 0.357682
62.885 0.354556
62.92 0.435785
62.955 0.436206
62.99 0.457459
63.025 0.420852
63.06 0.3066
63.095 0.256928
63.13 0.200189
63.165 0.17945
63.2 0.0957359
63.235 0.0704347
63.27 0.0411194
63.305 0.0411101
63.34 0.0095505
63.375 -0.00486963
63.41 0.00377744
63.445 0.00585785
63.48 -0.00629507
63.515 -0.00749869
63.55 0.0337133
63.585 0.0216663
63.62 -0.00506893
63.655 0.000827072
63.69 -0.0137397
63.725 0.0195977
63.76 -0.00132855
63.795 0.00211168
63.83 -0.0123073
63.865 0.0285001
63.9 0.0268132
63.935 0.0151207
63.97 0.0182299
64.005 0.0136558
64.04 0.0148416
64.075 0.0210889
64.11 0.0123495
64.145 0.015065
64.18 0.0114624
64.215 0.0104396
64.25 -0.00668493
64.285 0.0103465
64.32 -0.00344521
64.355 0.0249392
64.39 0.0307656
64.425 -0.0127752
64.46 0.00646402
64.495 0.0360741
64.53 0.0177452
64.565 0.026554
64.6 0.00869914
64.635 0.0256844
64.67 0.0260853
64.705 0.0166237
64.74 0.00504943
64.775 0.0145169
64.81 0.00160363
64.845 0.0209447
64.88 0.00196601
64.915 -0.00381518
64.95 0.0114853
64.985 0.0503011
65.02 0.0189743
65.055 0.0239069
65.09 0.0191274
65.125 0.0290393
65.16 0.0172346
65.195 -0.00843293
65.23 0.0305249
65.265 0.0261526
65.3 0.0133253
65.335 0.0304134
65.37 0.0310939
65.405 0.0182696
65.44 0.0149024
65.475 0.0339464
65.51 0.0193075
65.545 0.0155422
65.58 0.0254756
65.615 0.0130114
65.65 0.038498
65.685 0.00254716
65.72 0.00524364
65.755 0.00581846
65.79 0.0332531
65.825 0.0342448
65.86 0.0312818
65.895 -0.0139141
65.93 0.0263462
65.965 0.0214449
66 0.0234348
66.035 0.000803501
66.07 0.0175894
66.105 0.0169842
66.14 0.0256421
66.175 0.00133321
66.21 0.00618258
66.245 0.051449
66.28 0.0539224
66.315 0.0610862
66.35 0.065335
66.385 0.113527
66.42 0.139443
66.455 0.19207
66.49 0.209875
66.525 0.242053
66.56 0.288766
66.595 0.319992
66.63 0.358245
66.665 0.390175
66.7 0.4388
66.735 0.473224
66.77 0.460523
66.805 0.512601
66.84 0.422601
66.875 0.438068
66.91 0.37983
66.945 0.318101
66.98 0.259935
67.015 0.235062
67.05 0.21401
67.085 0.127474
67.12 0.0949531
67.155 0.0605954
67.19 0.0663096
67.225 0.0280478
67.26 -0.0081233
67.295 0.0301308
67.33 -0.000254493
67.365 -0.00966828
67.4 0.0143921
67.435 0.0138096
67.47 0.0141206
67.505 -0.00442671
67.54 0.00757148
67.575 0.024273
67.61 0.00628209
67.645 0.0239328
67.68 0.00106238
67.715 0.00575643
67.75 0.0294156
67.785 0.0120873
67.82 0.00922184
67.855 -0.00828816
67.89 -0.00271304
67.925 0.0186277
67.96 0.0350289
67.995 0.0425488
68.03 0.0725139
68.065 0.0677753
68.1 0.0972198
68.135 0.104837
68.17 0.112379
68.205 0.12873
68.24 0.122286
68.275 0.147166
68.31 0.125682
68.345 0.127224
68.38 0.105318
68.415 0.104423
68.45 0.0589141
68.485 0.0687688
68.52 0.060733
68.555 0.0416972
68.59 0.0454265
68.625 0.0413417
68.66 -0.00591411
68.695 -0.00693697
68.73 0.012181
68.765 0.000830192
68.8 0.0144741
68.835 0.0111451
68.87 -0.0144967
68.905 -0.00163016
68.94 0.0121756
68.975 0.0243497
69.01 0.0156267
69.045 0.0113719
69.08 0.0141798
69.115 -0.0143542
69.15 0.0204823
69.185 0.00845018
69.22 0.0241318
69.255 0.00875589
69.29 0.017994
69.325 -0.0133496
69.36 -0.0119154
69.395 -0.000480361
69.43 0.0368525
69.465 0.0152527
69.5 0.0306958
69.535 0.00552161
69.57 0.0134339
69.605 0.0215593
69.64 0.0248482
69.675 -0.0105678
69.71 -0.00289355
69.745 0.0244241
69.78 0.00526789
69.815 -0.00423297
69.85 -0.0121699
69.885 0.00734483
69.92 0.00743405
69.955 0.00733494
69.99 0.00893078
70.025 0.0210981
70.06 0.000740185
70.095 0.00191682
70.13 0.00216765
70.165 -0.000264678
70.2 -0.000239773
70.235 -0.00213229
70.27 -0.00680887
70.305 0.00321833
70.34 -0.011272
70.375 0.0189383
70.41 0.00808824
70.445 0.00640025
70.48 0.00121948
70.515 0.00897933
70.55 0.00668826
70.585 0.0114105
70.62 0.00786863
70.655 0.0121316
70.69 0.000249229
70.725 0.0218475
70.76 0.0129498
70.795 0.0223132
70.83 0.0275801
70.865 0.00962248
70.9 0.009252
70.935 0.0184501
70.97 0.02506
71.005 0.00282789
71.04 -0.0116607
71.075 0.019069
71.11 0.0168215
71.145 0.0237989
71.18 0.0144881
71.215 0.00110715
71.25 0.00431471
71.285 0.0289868
71.32 0.00384788
71.355 -0.00807893
71.39 0.0235383
71.425 0.0159786
71.46 -0.00765834
71.495 -0.00901217
71.53 0.0165595
71.565 -0.00774962
71.6 -0.0141037
71.635 0.00362827
71.67 0.0242844
71.705 0.0291613
71.74 0.0211059
71.775 0.00915956
71.81 -0.00216543
71.845 -0.00359588
71.88 0.00692494
71.915 -0.0141308
71.95 0.00772668
71.985 0.000144687
72.02 -0.00154463
72.055 -0.00608035
72.09 0.00525397
72.125 -2.56407e-05
72.16 0.0123405
72.195 0.0216647
72.23 -0.0120543
72.265 -0.00149411
72.3 0.0391979
72.335 0.0108964
72.37 0.0212058
72.405 0.0084938
72.44 0.0109361
72.475 -0.00776755
72.51 -3.22704e-05
72.545 0.0018557
72.58 0.0327069
72.615 0.0248711
72.65 0.0117359
72.685 0.0425112
72.72 0.0416684
72.755 0.0610511
72.79 0.0829314
72.825 0.0378661
72.86 0.0953946
72.895 0.118079
72.93 0.124035
72.965 0.151766
73 0.139821
73.035 0.158636
73.07 0.170112
73.105 0.165868
73.14 0.162676
73.175 0.144083
73.21 0.122313
73.245 0.103843
73.28 0.0947156
73.315 0.100794
73.35 0.0443426
73.385 0.0269263
73.42 0.0463562
73.455 0.0482891
73.49 0.00369469
73.525 0.0122745
73.56 -0.00880786
73.595 -0.00114826
73.63 -0.00519737
73.665 0.00444784
73.7 0.00296201
73.735 0.0182012
73.77 -0.00507375
73.805 0.0215388
73.84 -0.00232322
73.875 -0.00672171
73.91 0.0231578
73.945 0.0146824
73.98 -0.005703
74.015 0.0132413
74.05 -0.00719997
74.085 0.0119063
74.12 -0.00642444
74.155 0.0234799
74.19 -0.00290553
74.225 -0.00185795
74.26 -0.00859591
74.295 -0.00103909
74.33 0.00229708
74.365 0.0115935
74.4 0.00144133
74.435 0.00212541
74.47 0.00895536
74.505 0.0102973
74.54 0.00530723
74.575 0.000122382
74.61 0.00816727
74.645 0.0230289
74.68 0.0248287
74.715 0.0114084
74.75 0.0186967
74.785 0.00367466
74.82 0.0177329
74.855 0.0187659
74.89 -0.0121388
74.925 0.00845964
74.96 -0.00168799
74.995 -0.000166767
75.03 0.00379884
75.065 0.0136102
75.1 0.0153307
75.135 -0.00168942
75.17 -0.0144903
75.18 -0.0147496