File: data/xrd/xy/2019-03-19T18_02_18.665051+00_00_LBL.xy
'Id: "" Comment: "Integrate frame pyrro0_00_003.gfrmwith cursor Wedge Cursor #1" Operator: "UC Berkeley" Anode: "Co" Scantype: "TwoTheta" TimePerStep: "1200.002"
13.645 -0.0188664
13.685 0.0213135
13.725 0.0138226
13.765 -0.00293813
13.805 0.00535091
13.845 0.0101238
13.885 0.0131148
13.925 -0.004834
13.965 0.0319396
14.005 0.0404789
14.045 0.0458191
14.085 0.0464253
14.125 0.0354221
14.165 0.0503474
14.205 0.0253533
14.245 0.0497001
14.285 0.032376
14.325 0.01414
14.365 0.0293029
14.405 0.0227962
14.445 0.0103776
14.485 0.0533281
14.525 0.0597321
14.565 0.0192236
14.605 0.0136819
14.645 0.032304
14.685 0.0402994
14.725 0.0354781
14.765 0.0258173
14.805 0.0122267
14.845 0.0243792
14.885 0.000590232
14.925 0.0448869
14.965 0.045245
15.005 0.0286437
15.045 0.0284644
15.085 0.052616
15.125 0.0410938
15.165 0.0514839
15.205 0.0617452
15.245 0.056687
15.285 0.00778279
15.325 0.0388009
15.365 0.0200397
15.405 0.0307492
15.445 0.0478002
15.485 0.0482169
15.525 0.0493852
15.565 0.0091071
15.605 0.0535858
15.645 0.0343609
15.685 0.0436615
15.725 0.0194285
15.765 0.0635968
15.805 0.014988
15.845 0.028705
15.885 0.0437683
15.925 0.0137899
15.965 0.0140994
16.005 0.0138123
16.045 0.0363442
16.085 0.0330545
16.125 0.00631295
16.165 0.0222171
16.205 0.0245953
16.245 0.0444003
16.285 0.0716756
16.325 0.0494786
16.365 0.0773581
16.405 0.054696
16.445 0.0375111
16.485 0.0392234
16.525 0.0477446
16.565 0.0386429
16.605 0.0428927
16.645 0.0391803
16.685 0.0509216
16.725 0.0475244
16.765 0.0464523
16.805 0.0365412
16.845 0.0666433
16.885 0.0417373
16.925 0.0580119
16.965 0.0466437
17.005 0.0631454
17.045 0.0457961
17.085 0.0403538
17.125 0.0408473
17.165 0.0539822
17.205 0.0783631
17.245 0.0337773
17.285 0.0312919
17.325 0.0283833
17.365 0.0490129
17.405 0.0325827
17.445 0.0691239
17.485 0.0678973
17.525 0.0479034
17.565 0.0565165
17.605 0.0720075
17.645 0.0617369
17.685 0.0595569
17.725 0.0572049
17.765 0.0956515
17.805 0.0321312
17.845 0.0500386
17.885 0.0714535
17.925 0.0609514
17.965 0.0845661
18.005 0.0789379
18.045 0.0741706
18.085 0.0651368
18.125 0.0648163
18.165 0.0815709
18.205 0.0579597
18.245 0.0846156
18.285 0.097883
18.325 0.0542101
18.365 0.11323
18.405 0.074265
18.445 0.0914685
18.485 0.0624282
18.525 0.0677574
18.565 0.0642632
18.605 0.074484
18.645 0.0557456
18.685 0.080213
18.725 0.0940974
18.765 0.106682
18.805 0.0886036
18.845 0.0947427
18.885 0.104698
18.925 0.0796479
18.965 0.0641185
19.005 0.0993507
19.045 0.0954745
19.085 0.123797
19.125 0.0906852
19.165 0.108645
19.205 0.0930774
19.245 0.119019
19.285 0.107473
19.325 0.114464
19.365 0.119274
19.405 0.10873
19.445 0.12262
19.485 0.125108
19.525 0.0948691
19.565 0.111793
19.605 0.132976
19.645 0.132908
19.685 0.117382
19.725 0.137625
19.765 0.140559
19.805 0.12613
19.845 0.122859
19.885 0.126514
19.925 0.118803
19.965 0.107321
20.005 0.1449
20.045 0.104089
20.085 0.135859
20.125 0.147875
20.165 0.119002
20.205 0.120752
20.245 0.159456
20.285 0.144229
20.325 0.136303
20.365 0.13194
20.405 0.15043
20.445 0.150833
20.485 0.160047
20.525 0.149285
20.565 0.162213
20.605 0.130772
20.645 0.152452
20.685 0.142234
20.725 0.165975
20.765 0.163518
20.805 0.17813
20.845 0.164698
20.885 0.158714
20.925 0.193939
20.965 0.1844
21.005 0.156681
21.045 0.168232
21.085 0.193456
21.125 0.157406
21.165 0.19178
21.205 0.180189
21.245 0.208011
21.285 0.19403
21.325 0.19013
21.365 0.178183
21.405 0.203972
21.445 0.19664
21.485 0.177752
21.525 0.188523
21.565 0.211789
21.605 0.200742
21.645 0.216658
21.685 0.210103
21.725 0.235187
21.765 0.21095
21.805 0.226571
21.845 0.205816
21.885 0.239859
21.925 0.264895
21.965 0.252759
22.005 0.255481
22.045 0.251525
22.085 0.293278
22.125 0.276859
22.165 0.243864
22.205 0.279788
22.245 0.25892
22.285 0.235366
22.325 0.263044
22.365 0.254359
22.405 0.265665
22.445 0.286649
22.485 0.254052
22.525 0.267804
22.565 0.245289
22.605 0.300314
22.645 0.291405
22.685 0.26974
22.725 0.28184
22.765 0.302741
22.805 0.319803
22.845 0.266421
22.885 0.305615
22.925 0.289311
22.965 0.286752
23.005 0.292067
23.045 0.320711
23.085 0.301389
23.125 0.29341
23.165 0.318326
23.205 0.274108
23.245 0.339553
23.285 0.298777
23.325 0.309554
23.365 0.325204
23.405 0.306762
23.445 0.307088
23.485 0.289783
23.525 0.320298
23.565 0.348589
23.605 0.34789
23.645 0.337267
23.685 0.336239
23.725 0.322523
23.765 0.355227
23.805 0.321937
23.845 0.317038
23.885 0.347706
23.925 0.332474
23.965 0.335913
24.005 0.3595
24.045 0.348459
24.085 0.327008
24.125 0.342179
24.165 0.351992
24.205 0.35677
24.245 0.383682
24.285 0.382044
24.325 0.351368
24.365 0.38679
24.405 0.353169
24.445 0.333806
24.485 0.356725
24.525 0.378393
24.565 0.384359
24.605 0.361699
24.645 0.383423
24.685 0.409532
24.725 0.400754
24.765 0.399417
24.805 0.40526
24.845 0.422649
24.885 0.396382
24.925 0.415592
24.965 0.449044
25.005 0.436335
25.045 0.43557
25.085 0.459344
25.125 0.47086
25.165 0.473722
25.205 0.47479
25.245 0.515519
25.285 0.551375
25.325 0.533363
25.365 0.583107
25.405 0.61491
25.445 0.628867
25.485 0.68421
25.525 0.733158
25.565 0.819129
25.605 0.8664
25.645 0.993337
25.685 1.16238
25.725 1.32317
25.765 1.57143
25.805 2.0235
25.845 2.53337
25.885 3.22082
25.925 4.0316
25.965 5.06204
26.005 5.97725
26.045 6.77893
26.085 7.38319
26.125 7.0862
26.165 6.57524
26.205 5.58106
26.245 4.42733
26.285 3.39611
26.325 2.559
26.365 1.9259
26.405 1.41682
26.445 1.13477
26.485 0.920478
26.525 0.759605
26.565 0.685372
26.605 0.581668
26.645 0.535932
26.685 0.483823
26.725 0.430526
26.765 0.39881
26.805 0.346763
26.845 0.35648
26.885 0.331532
26.925 0.31712
26.965 0.2961
27.005 0.311981
27.045 0.290272
27.085 0.238983
27.125 0.253851
27.165 0.244114
27.205 0.25249
27.245 0.224393
27.285 0.208422
27.325 0.219328
27.365 0.198647
27.405 0.208314
27.445 0.188521
27.485 0.168868
27.525 0.189844
27.565 0.16859
27.605 0.159423
27.645 0.170136
27.685 0.141767
27.725 0.148835
27.765 0.151678
27.805 0.11682
27.845 0.163584
27.885 0.1603
27.925 0.159451
27.965 0.128972
28.005 0.148776
28.045 0.127493
28.085 0.131225
28.125 0.113198
28.165 0.12892
28.205 0.124266
28.245 0.1179
28.285 0.107689
28.325 0.118745
28.365 0.125953
28.405 0.137646
28.445 0.18794
28.485 0.240824
28.525 0.306584
28.565 0.355185
28.605 0.3705
28.645 0.282553
28.685 0.252411
28.725 0.195027
28.765 0.161975
28.805 0.152438
28.845 0.0987888
28.885 0.138918
28.925 0.104333
28.965 0.114748
29.005 0.103717
29.045 0.0968154
29.085 0.0664336
29.125 0.0880575
29.165 0.0936623
29.205 0.0708516
29.245 0.0539306
29.285 0.0861493
29.325 0.085275
29.365 0.0477294
29.405 0.0710284
29.445 0.0719794
29.485 0.0808541
29.525 0.0654214
29.565 0.0701422
29.605 0.0625222
29.645 0.0435469
29.685 0.0572332
29.725 0.078072
29.765 0.0528147
29.805 0.0448669
29.845 0.0867552
29.885 0.0550503
29.925 0.0399055
29.965 0.0608477
30.005 0.0311654
30.045 0.0442287
30.085 0.0490917
30.125 0.0439432
30.165 0.0451358
30.205 0.0493142
30.245 0.0369316
30.285 0.0566894
30.325 0.0495002
30.365 0.0566361
30.405 0.0410232
30.445 0.0846944
30.485 0.084224
30.525 0.113799
30.565 0.0842369
30.605 0.0848199
30.645 0.0675422
30.685 0.043124
30.725 0.0638686
30.765 0.0251646
30.805 0.0348121
30.845 0.0388632
30.885 0.0405216
30.925 0.021821
30.965 0.00590771
31.005 0.0114787
31.045 0.0284438
31.085 -0.00109805
31.125 0.0219251
31.165 0.0304574
31.205 0.0153659
31.245 0.0109382
31.285 0.0275137
31.325 0.0209811
31.365 0.0283273
31.405 0.037134
31.445 0.0175467
31.485 0.0331889
31.525 0.027298
31.565 0.0339982
31.605 0.0186717
31.645 0.0376085
31.685 0.0112461
31.725 0.0395794
31.765 0.00689949
31.805 0.01432
31.845 0.0152035
31.885 0.0128918
31.925 0.0261447
31.965 0.0243487
32.005 0.0316212
32.045 0.0286201
32.085 0.00841493
32.125 0.0350988
32.165 0.029139
32.205 0.0269241
32.245 0.0095837
32.285 0.00929539
32.325 0.0156139
32.365 0.0486665
32.405 0.0255424
32.445 0.0143734
32.485 0.00735468
32.525 0.0179139
32.565 -0.000628411
32.605 0.0114866
32.645 0.0101036
32.685 0.00944616
32.725 0.00734819
32.765 0.0112739
32.805 0.00951597
32.845 -0.00292229
32.885 -0.00731891
32.925 0.0135296
32.965 -0.00884962
33.005 0.0192251
33.045 0.000891831
33.085 -0.00236903
33.125 -0.00218099
33.165 0.00100176
33.205 -0.00397446
33.245 -0.00269185
33.285 0.0115895
33.325 0.0072751
33.365 0.0146571
33.405 -0.0116257
33.445 -0.00381213
33.485 -0.0124962
33.525 0.0183344
33.565 0.0244339
33.605 0.00896421
33.645 0.00395431
33.685 0.0117815
33.725 0.0044065
33.765 0.0156849
33.805 0.0116567
33.845 0.0316315
33.885 0.0441377
33.925 0.0867707
33.965 0.0806517
34.005 0.0914304
34.045 0.0828585
34.085 0.061946
34.125 0.0596733
34.165 0.0430091
34.205 0.0334717
34.245 0.0390226
34.285 0.0238067
34.325 0.0203847
34.365 0.0229667
34.405 0.0317999
34.445 0.0230911
34.485 0.0156986
34.525 0.010995
34.565 -0.0042642
34.605 -0.0074022
34.645 -0.00256347
34.685 -0.00430558
34.725 -0.00985583
34.765 -0.00166609
34.805 0.00908276
34.845 -0.00112097
34.885 0.00211096
34.925 0.00845176
34.965 -0.00236481
35.005 0.00978727
35.045 0.00372268
35.085 0.00648204
35.125 0.00118466
35.165 0.000937902
35.205 -0.00793836
35.245 -0.00588031
35.285 0.00697659
35.325 -0.00202962
35.365 0.0087
35.405 -0.00543443
35.445 0.00161075
35.485 -0.0100857
35.525 0.00686421
35.565 0.000677441
35.605 0.0133218
35.645 0.00256742
35.685 0.000990601
35.725 0.00323761
35.765 -0.000862763
35.805 0.000161073
35.845 -0.00851915
35.885 0.00450324
35.925 0.00966389
35.965 -0.00468651
36.005 -0.00762216
36.045 -0.00780616
36.085 -0.00259311
36.125 0.00576434
36.165 0.000816424
36.205 0.0109871
36.245 0.0210629
36.285 0.025566
36.325 0.0438986
36.365 0.0596003
36.405 0.0664247
36.445 0.0556496
36.485 0.0580132
36.525 0.0456301
36.565 0.0310149
36.605 0.0379387
36.645 0.0211871
36.685 0.029259
36.725 0.0168862
36.765 0.0232057
36.805 0.00607141
36.845 0.00318474
36.885 0.00764253
36.925 0.012005
36.965 0.00156099
37.005 0.00585141
37.045 -0.0115273
37.085 0.00644156
37.125 -0.0104925
37.165 -0.000383256
37.205 -0.00144543
37.245 0.00731525
37.285 0.00853528
37.325 0.00194791
37.365 0.00621299
37.405 -0.00737094
37.445 -0.00490565
37.485 0.00309217
37.525 0.000139772
37.565 0.0102254
37.605 0.0121679
37.645 0.0207672
37.685 0.0105798
37.725 0.00413202
37.765 0.0259035
37.805 0.0214748
37.845 0.0186461
37.885 0.0179928
37.925 0.0289091
37.965 0.0209801
38.005 0.0202591
38.045 0.0365625
38.085 0.0275116
38.125 0.0348687
38.165 0.0483892
38.205 0.0444699
38.245 0.0473969
38.285 0.0583664
38.325 0.0547347
38.365 0.0683418
38.405 0.0756114
38.445 0.0769849
38.485 0.0866563
38.525 0.0962766
38.565 0.112805
38.605 0.116497
38.645 0.139243
38.685 0.145774
38.725 0.185556
38.765 0.21295
38.805 0.245402
38.845 0.266895
38.885 0.29893
38.925 0.312614
38.965 0.37528
39.005 0.426369
39.045 0.520123
39.085 0.570676
39.125 0.669093
39.165 0.745826
39.205 0.813801
39.245 0.909678
39.285 0.977433
39.325 1.03184
39.365 1.11367
39.405 1.14124
39.445 1.16573
39.485 1.17906
39.525 1.15439
39.565 1.15069
39.605 1.10519
39.645 1.05948
39.685 0.98411
39.725 0.881768
39.765 0.854694
39.805 0.758831
39.845 0.688275
39.885 0.590474
39.925 0.525322
39.965 0.458021
40.005 0.367196
40.045 0.32005
40.085 0.265104
40.125 0.225325
40.165 0.191554
40.205 0.141178
40.245 0.145838
40.285 0.115938
40.325 0.0956493
40.365 0.107978
40.405 0.080803
40.445 0.0810529
40.485 0.0784823
40.525 0.0652428
40.565 0.0745488
40.605 0.0546102
40.645 0.0661395
40.685 0.0366384
40.725 0.0444447
40.765 0.0478887
40.805 0.0402873
40.845 0.0644543
40.885 0.0536919
40.925 0.0353055
40.965 0.0433057
41.005 0.0186355
41.045 0.0247839
41.085 0.0146105
41.125 0.0325407
41.165 0.0134807
41.205 0.0141582
41.245 0.0186953
41.285 0.017082
41.325 0.0127162
41.365 0.0222111
41.405 0.015841
41.445 0.00793941
41.485 0.0157689
41.525 0.0221006
41.565 0.00954067
41.605 0.0153725
41.645 0.000835773
41.685 0.013547
41.725 0.0102411
41.765 0.00918623
41.805 0.012911
41.845 0.0120118
41.885 0.0125991
41.925 0.0025422
41.965 0.00383248
42.005 0.0038661
42.045 0.0015563
42.085 0.0177701
42.125 0.0011228
42.165 0.000605404
42.205 0.00221265
42.245 0.00703619
42.285 -0.0142811
42.325 -0.00648992
42.365 0.00175081
42.405 -0.00221825
42.445 0.000830931
42.485 -0.00117462
42.525 -0.00204475
42.565 -0.000653881
42.605 -0.00274272
42.645 0.00592385
42.685 -0.0127696
42.725 -0.00435005
42.765 -0.00365344
42.805 0.0122909
42.845 0.00512957
42.885 0.0168336
42.925 0.0238164
42.965 0.0280026
43.005 0.0321374
43.045 0.0346648
43.085 0.0417656
43.125 0.0396867
43.165 0.0334985
43.205 0.0323826
43.245 0.0289305
43.285 0.040453
43.325 0.0250768
43.365 0.0207241
43.405 0.027279
43.445 0.00685562
43.485 0.015499
43.525 0.00855339
43.565 -0.0116184
43.605 0.00485917
43.645 0.0256903
43.685 0.00945409
43.725 0.00984559
43.765 0.0118996
43.805 0.00610228
43.845 -0.00156754
43.885 -0.0136228
43.925 -0.00553895
43.965 -0.00720567
44.005 0.00427457
44.045 -0.00208543
44.085 0.0145383
44.125 -0.00318171
44.165 0.00379223
44.205 0.00174619
44.245 0.00489476
44.285 0.00873148
44.325 0.0116418
44.365 0.0117438
44.405 0.0138218
44.445 0.009467
44.485 0.00457889
44.525 -0.0110437
44.565 -0.00328021
44.605 -0.00257562
44.645 0.00193677
44.685 0.0040164
44.725 0.0108042
44.765 0.00485092
44.805 0.0158647
44.845 0.0127606
44.885 0.0312688
44.925 0.0360658
44.965 0.0326672
45.005 0.0468898
45.045 0.0767472
45.085 0.0895827
45.125 0.0992852
45.165 0.125574
45.205 0.132703
45.245 0.123014
45.285 0.132854
45.325 0.126037
45.365 0.124976
45.405 0.123675
45.445 0.125772
45.485 0.123143
45.525 0.0871492
45.565 0.0923563
45.605 0.105198
45.645 0.0496701
45.685 0.0485617
45.725 0.0746557
45.765 0.0604771
45.805 0.0706921
45.845 0.0701477
45.885 0.086244
45.925 0.0811139
45.965 0.100514
46.005 0.0924092
46.045 0.0990576
46.085 0.0959336
46.125 0.101535
46.165 0.0936038
46.205 0.0816733
46.245 0.0842388
46.285 0.0669038
46.325 0.0656738
46.365 0.0656268
46.405 0.0441655
46.445 0.0387553
46.485 0.0309844
46.525 0.0291844
46.565 0.0192878
46.605 0.0244118
46.645 0.0298428
46.685 0.0311015
46.725 0.0388642
46.765 0.0400681
46.805 0.0828143
46.845 0.138744
46.885 0.174357
46.925 0.250374
46.965 0.284673
47.005 0.29165
47.045 0.263904
47.085 0.240129
47.125 0.197697
47.165 0.17769
47.205 0.187438
47.245 0.200229
47.285 0.202314
47.325 0.21585
47.365 0.251933
47.405 0.243327
47.445 0.238875
47.485 0.209912
47.525 0.187755
47.565 0.133673
47.605 0.12017
47.645 0.0933075
47.685 0.043499
47.725 0.0321974
47.765 0.0187718
47.805 0.0204291
47.845 0.0151376
47.885 0.0113396
47.925 0.00612012
47.965 0.00859588
48.005 0.000573294
48.045 0.00592617
48.085 0.00333611
48.125 -0.0110467
48.165 -0.0103264
48.205 0.00273275
48.245 0.00200504
48.285 -0.00948687
48.325 -0.00410111
48.365 0.00283372
48.405 -0.00480238
48.445 -0.0038325
48.485 0.00118546
48.525 0.00284471
48.565 0.00304264
48.605 -0.0106296
48.645 0.00406568
48.685 0.00585176
48.725 -0.0112832
48.765 -0.00559472
48.805 -0.00123293
48.845 -0.00261796
48.885 0.00307776
48.925 0.0126034
48.965 0.00965291
49.005 0.0004266
49.045 0.00855669
49.085 0.0118321
49.125 0.00729328
49.165 0.0049883
49.205 0.0151522
49.245 0.00660685
49.285 -0.00538808
49.325 0.0161134
49.365 0.00434764
49.405 0.0131042
49.445 0.0119098
49.485 0.0181087
49.525 0.0126171
49.565 0.0140109
49.605 0.0183617
49.645 0.0273299
49.685 0.0110246
49.725 0.0160092
49.765 0.0225484
49.805 0.0195085
49.845 0.0262218
49.885 0.0170862
49.925 0.0132935
49.965 0.0189931
50.005 0.00454501
50.045 0.00849148
50.085 0.0110019
50.125 0.00883266
50.165 0.0082123
50.205 -0.000680382
50.245 -0.00169219
50.285 0.0024158
50.325 0.00140604
50.365 0.00687716
50.405 0.00252445
50.445 0.000178402
50.485 0.0163959
50.525 -0.00216281
50.565 0.00279966
50.605 0.00319476
50.645 0.00600719
50.685 -0.00215242
50.725 0.00485287
50.765 0.00785257
50.805 0.00768627
50.845 0.00247208
50.885 -0.00711149
50.925 -0.00700325
50.965 0.00590011
51.005 0.00175768
51.045 -0.00391531
51.085 0.00503051
51.125 0.00297524
51.165 -0.012631
51.205 -0.000729441
51.245 0.00271982
51.285 -0.00224152
51.325 0.00656306
51.365 -0.00214916
51.405 0.00548144
51.445 -0.00729885
51.485 0.00238741
51.525 0.00221075
51.565 0.00502098
51.605 0.0152136
51.645 0.0104831
51.685 0.00738723
51.725 0.00901019
51.765 -0.00333402
51.805 0.013089
51.845 0.0151569
51.885 0.0156792
51.925 0.0166627
51.965 0.0195273
52.005 0.014183
52.045 0.0146698
52.085 0.0189622
52.125 0.0257588
52.165 0.0237556
52.205 0.0291865
52.245 0.0358741
52.285 0.0341373
52.325 0.0433557
52.365 0.0480671
52.405 0.0601524
52.445 0.0453962
52.485 0.0591086
52.525 0.0391763
52.565 0.0498462
52.605 0.0457925
52.645 0.0410054
52.685 0.0470814
52.725 0.0439824
52.765 0.0328342
52.805 0.0348482
52.845 0.0358518
52.885 0.0277238
52.925 0.028322
52.965 0.015134
53.005 0.0165457
53.045 0.00940631
53.085 0.00896935
53.125 0.00755881
53.165 -0.00137208
53.205 0.0115852
53.245 0.0156307
53.285 0.0121861
53.325 0.00208359
53.365 0.0134662
53.405 0.00915038
53.445 0.00954547
53.485 0.012318
53.525 0.0146904
53.565 0.00745911
53.605 0.0272251
53.645 0.0151911
53.685 0.0252133
53.725 0.0251822
53.765 0.0265386
53.805 0.0321512
53.845 0.0311617
53.885 0.0397586
53.925 0.0324679
53.965 0.0251744
54.005 0.0412192
54.045 0.044397
54.085 0.039034
54.125 0.0553931
54.165 0.0515379
54.205 0.0629788
54.245 0.0531309
54.285 0.0847723
54.325 0.0753874
54.365 0.0749801
54.405 0.0867355
54.445 0.0956888
54.485 0.103471
54.525 0.127079
54.565 0.13386
54.605 0.130906
54.645 0.144881
54.685 0.144666
54.725 0.129031
54.765 0.115977
54.805 0.112921
54.845 0.110872
54.885 0.116283
54.925 0.129349
54.965 0.143707
55.005 0.160862
55.045 0.179815
55.085 0.19398
55.125 0.244551
55.165 0.249845
55.205 0.272341
55.245 0.292615
55.285 0.326978
55.325 0.326495
55.365 0.352741
55.405 0.368472
55.445 0.370652
55.485 0.385817
55.525 0.382642
55.565 0.390872
55.605 0.37228
55.645 0.362505
55.685 0.332115
55.725 0.32163
55.765 0.291002
55.805 0.275035
55.845 0.240309
55.885 0.214362
55.925 0.191748
55.965 0.182116
56.005 0.146551
56.045 0.134178
56.085 0.12032
56.125 0.0931411
56.165 0.0934416
56.205 0.0830687
56.245 0.0701344
56.285 0.0680494
56.325 0.0614045
56.365 0.0438423
56.405 0.046429
56.445 0.032678
56.485 0.0340784
56.525 0.0411939
56.565 0.0380188
56.605 0.028838
56.645 0.0369975
56.685 0.0236966
56.725 0.0330476
56.765 0.028293
56.805 0.0265069
56.845 0.0340795
56.885 0.0342841
56.925 0.0360587
56.965 0.0248871
57.005 0.0286428
57.045 0.0325897
57.085 0.0282854
57.125 0.0308427
57.165 0.0259512
57.205 0.0212605
57.245 0.0264033
57.285 0.0241038
57.325 0.0275986
57.365 0.0256525
57.405 0.0193493
57.445 0.0307874
57.485 0.0287264
57.525 0.0347701
57.565 0.0535693
57.605 0.0329576
57.645 0.0328511
57.685 0.038628
57.725 0.0446042
57.765 0.0447277
57.805 0.0503622
57.845 0.0645598
57.885 0.0634341
57.925 0.0699163
57.965 0.104931
58.005 0.114784
58.045 0.134976
58.085 0.103204
58.125 0.0849437
58.165 0.0690034
58.205 0.0509271
58.245 0.0483248
58.285 0.0420536
58.325 0.0358288
58.365 0.0119115
58.405 0.0167808
58.445 0.010519
58.485 0.013508
58.525 0.00389574
58.565 0.0114027
58.605 0.00684292
58.645 0.0107905
58.685 0.00901755
58.725 0.00564046
58.765 0.00319457
58.805 -0.00801044
58.845 0.00531237
58.885 0.00092992
58.925 0.00798291
58.965 0.00519178
59.005 0.0126708
59.045 0.00584522
59.085 0.000626424
59.125 0.0152359
59.165 0.0108312
59.205 0.00880492
59.245 0.0196231
59.285 0.0117192
59.325 0.0122046
59.365 0.0185595
59.405 0.0231996
59.445 0.0248426
59.485 0.0335432
59.525 0.0343811
59.565 0.0369234
59.605 0.0268624
59.645 0.0260338
59.685 0.022458
59.725 0.0240823
59.765 0.0231144
59.805 0.00747301
59.845 0.00944736
59.885 -0.000908516
59.925 0.00692512
59.965 0.00601205
60.005 0.00435483
60.045 0.0179154
60.085 0.00356962
60.125 0.017924
60.165 0.00886454
60.205 0.00252375
60.245 0.00354078
60.285 0.00953222
60.325 0.00924771
60.365 0.01182
60.405 0.00783704
60.445 0.0022353
60.485 0.0216692
60.525 0.001984
60.565 0.0169969
60.605 0.00823696
60.645 0.00422158
60.685 0.0193364
60.725 0.00981262
60.765 0.0143714
60.805 0.0183697
60.845 0.0298882
60.885 0.0338804
60.925 0.0260928
60.965 0.038303
61.005 0.0250412
61.045 0.0312084
61.085 0.0331039
61.125 0.0283639
61.165 0.0457934
61.205 0.0378683
61.245 0.0427335
61.285 0.0409916
61.325 0.0330382
61.365 0.0284641
61.405 0.0410242
61.445 0.0324056
61.485 0.0373157
61.525 0.0424925
61.565 0.0364977
61.605 0.0463371
61.645 0.041382
61.685 0.0537906
61.725 0.0466998
61.765 0.0556525
61.805 0.059217
61.845 0.0670486
61.885 0.0597262
61.925 0.0788875
61.965 0.0910945
62.005 0.0861621
62.045 0.0909278
62.085 0.105382
62.125 0.126933
62.165 0.127639
62.205 0.129115
62.245 0.135816
62.285 0.150647
62.325 0.152427
62.365 0.166514
62.405 0.160259
62.445 0.185681
62.485 0.152008
62.525 0.151917
62.565 0.147628
62.605 0.156872
62.645 0.141184
62.685 0.13418
62.725 0.124631
62.765 0.115832
62.805 0.10357
62.845 0.0919111
62.885 0.0931197
62.925 0.078477
62.965 0.0794928
63.005 0.0713188
63.045 0.056792
63.085 0.0429629
63.125 0.0259571
63.165 0.0401786
63.205 0.0249699
63.245 0.0244753
63.285 0.0196208
63.325 0.0195174
63.365 0.0140234
63.405 0.00879076
63.445 0.00462494
63.485 0.0124396
63.525 0.00469308
63.565 0.00839457
63.605 0.00918277
63.645 -0.0034002
63.685 0.00613024
63.725 0.0152475
63.765 0.0122532
63.805 0.000465963
63.845 0.0121303
63.885 -0.00401951
63.925 0.00603328
63.965 0.00531031
64.005 0.00979095
64.045 0.0176567
64.085 0.025462
64.125 0.0316402
64.165 0.0294766
64.205 0.0254622
64.245 0.0286297
64.285 0.0471173
64.325 0.0312476
64.365 0.0279062
64.405 0.0351899
64.445 0.0309781
64.485 0.0352353
64.525 0.0279973
64.565 0.035583
64.605 0.0280398
64.645 0.0238451
64.685 0.0216637
64.725 0.019957
64.765 0.0164443
64.805 0.0110648
64.845 0.0199777
64.885 0.014104
64.925 0.00132883
64.965 0.00151256
65.005 0.00710672
65.045 -0.00592247
65.085 0.00318606
65.125 0.00213281
65.165 -0.00556832
65.205 -0.00585828
65.245 -0.00144622
65.285 0.00612745
65.325 0.000674701
65.365 -0.00376666
65.405 0.00913815
65.445 0.00654655
65.485 0.00443015
65.525 0.00119869
65.565 0.000854325
65.605 0.00619599
65.645 0.00189561
65.685 0.00523984
65.725 -0.00755797
65.765 0.00716383
65.805 0.00602557
65.845 -0.00140206
65.885 0.00370694
65.925 0.00823627
65.965 -0.00155942
66.005 -0.00660004
66.045 0.0140411
66.085 0.00735461
66.125 0.00337936
66.165 -0.00710933
66.205 -0.00135427
66.245 0.00326875
66.285 0.000241259
66.325 -0.00600882
66.365 0.00234294
66.405 0.00397233
66.445 -0.00373587
66.485 -0.00167299
66.525 -0.00537873
66.565 0.000490521
66.605 0.00485833
66.645 0.00608432
66.685 -0.000625972
66.725 -0.00850497
66.765 0.0112097
66.805 0.0126271
66.845 0.00339159
66.885 0.0173589
66.925 0.00932464
66.965 0.000528582
67.005 0.00579899
67.045 0.00526167
67.085 0.0126893
67.125 0.0203339
67.165 0.0165123
67.205 0.0114413
67.245 0.0336794
67.285 0.0336374
67.325 0.0371854
67.365 0.047637
67.405 0.043199
67.445 0.0431402
67.485 0.0366069
67.525 0.0537499
67.565 0.0423633
67.605 0.0450889
67.645 0.0428116
67.685 0.0327971
67.725 0.0365852
67.765 0.0299252
67.805 0.037238
67.845 0.0380395
67.885 0.0252221
67.925 0.0244174
67.965 0.017717
68.005 0.0152497
68.045 0.00722631
68.085 0.0173712
68.125 0.0168545
68.165 0.0137514
68.205 0.0157197
68.245 0.0189693
68.285 0.0228117
68.325 0.0148933
68.365 0.0162851
68.405 0.0307484
68.445 0.0230012
68.485 0.0147734
68.525 0.0185288
68.565 0.0375933
68.605 0.0347695
68.645 0.0338516
68.685 0.0309782
68.725 0.0261445
68.765 0.0434742
68.805 0.0391636
68.845 0.0414058
68.885 0.0486496
68.925 0.0508664
68.965 0.0482417
69.005 0.0478931
69.045 0.0418069
69.085 0.0420948
69.125 0.036414
69.165 0.0455421
69.205 0.0327115
69.245 0.0326692
69.285 0.0286593
69.325 0.0277399
69.365 0.0254686
69.405 0.0267099
69.445 0.0192066
69.485 0.017622
69.525 0.0207821
69.565 0.0267538
69.605 0.0157725
69.645 0.00791832
69.685 0.0213765
69.725 0.0142753
69.765 0.00626817
69.805 0.00901098
69.845 0.00943058
69.885 0.00636466
69.925 0.0105891
69.965 0.00485413
70.005 0.00791304
70.045 -0.0019545
70.085 0.00601993
70.125 0.00855692
70.165 -0.00267173
70.205 0.0149366
70.245 0.00641335
70.285 0.00553895
70.325 0.00539449
70.365 0.0106989
70.405 0.00274403
70.445 0.00713612
70.485 0.00403467
70.525 -0.00280431
70.565 -0.0011648
70.605 0.00193615
70.645 -0.00159046
70.685 0.00544679
70.725 -0.00474212
70.765 -0.00194834
70.805 0.00126269
70.845 0.00611641
70.885 0.00456226
70.925 0.00570365
70.965 0.00327951
71.005 0.00452769
71.045 0.00874204
71.085 0.00644112
71.125 -0.0039163
71.165 0.00934099
71.205 -0.0018948
71.245 0.00550617
71.285 0.00350028
71.325 0.0059941
71.365 0.00299534
71.405 -0.000924268
71.445 0.00159787
71.485 -0.00593514
71.525 -0.00841975
71.565 0.00100155
71.605 -0.00255747
71.645 0.00525455
71.685 0.00769387
71.725 0.0110841
71.765 0.0203575
71.805 0.0146834
71.845 0.00833158
71.885 0.0133391
71.925 0.0202794
71.965 0.0240555
72.005 0.0221929
72.045 0.014596
72.085 0.0103748
72.125 0.0141591
72.165 0.0106726
72.205 0.0084703
72.245 0.00313591
72.285 -0.0016569
72.325 -0.00567901
72.365 -0.00246684
72.405 -0.00793304
72.445 0.00455995
72.46 -0.00996629