File: data/xrd/xy/2019-07-12T13_34_37.895617+00_00_LBL_D7.xy
'Id: "" Comment: "Integrate frame 20190719_4fluorophenethyl_02_002.gfrmwith cursor Wedge Cursor #2" Operator: "UC Berkeley" Anode: "Co" Scantype: "TwoTheta" TimePerStep: "600"
13.955 -0.0256105
14 0.0103722
14.045 0.0476726
14.09 -0.00255778
14.135 0.0225377
14.18 0.0708335
14.225 0.046515
14.27 0.0738298
14.315 0.0824108
14.36 0.11635
14.405 0.171656
14.45 0.298335
14.495 0.557482
14.54 0.847857
14.585 1.19173
14.63 1.53674
14.675 1.81815
14.72 1.69298
14.765 1.29364
14.81 0.800329
14.855 0.532997
14.9 0.235519
14.945 0.0550235
14.99 0.0235188
15.035 0.0661137
15.08 0.017649
15.125 0.0470535
15.17 0.00795594
15.215 0.0820203
15.26 0.0156475
15.305 0.0918505
15.35 0.0424706
15.395 -0.0249296
15.44 0.0432982
15.485 0.0515306
15.53 0.0195644
15.575 0.0506887
15.62 0.0180143
15.665 0.0433102
15.71 0.0279079
15.755 0.044186
15.8 0.0792023
15.845 0.0327373
15.89 0.063733
15.935 0.0194242
15.98 -0.0116093
16.025 0.0764865
16.07 0.0836899
16.115 0.0117016
16.16 -0.0164012
16.205 0.030192
16.25 0.0223585
16.295 0.0236218
16.34 0.0537779
16.385 -0.0146321
16.43 -0.00138979
16.475 0.0384445
16.52 0.0422915
16.565 0.047227
16.61 0.122026
16.655 0.0464872
16.7 0.125986
16.745 0.15087
16.79 0.14888
16.835 0.176242
16.88 0.084646
16.925 0.0550371
16.97 0.00887114
17.015 0.0297052
17.06 0.0522952
17.105 0.0538345
17.15 0.099656
17.195 0.0791184
17.24 0.137618
17.285 0.114206
17.33 0.115898
17.375 0.110857
17.42 0.0201669
17.465 0.0903573
17.51 0.0682778
17.555 0.0190211
17.6 0.0989648
17.645 0.0639686
17.69 0.0715699
17.735 0.0408671
17.78 0.118531
17.825 0.0302919
17.87 0.0415685
17.915 0.0870701
17.96 0.0876042
18.005 0.0599521
18.05 -0.00176514
18.095 0.126967
18.14 0.0462197
18.185 0.0335122
18.23 0.0762924
18.275 0.0330939
18.32 0.100409
18.365 0.118573
18.41 0.168278
18.455 0.34891
18.5 0.573932
18.545 1.07531
18.59 1.75045
18.635 2.40469
18.68 3.01659
18.725 2.41306
18.77 1.482
18.815 0.708454
18.86 0.301015
18.905 0.0794459
18.95 0.0301772
18.995 0.0375611
19.04 -0.025541
19.085 0.0138338
19.13 0.0235813
19.175 0.0245716
19.22 0.0434073
19.265 0.0130868
19.31 0.0572345
19.355 0.00547389
19.4 0.0678777
19.445 0.0555335
19.49 0.0421512
19.535 0.0605418
19.58 0.0601643
19.625 -0.000987305
19.67 0.0416777
19.715 0.0742185
19.76 -0.00608021
19.805 0.0686582
19.85 0.0724962
19.895 0.0380571
19.94 0.0261926
19.985 0.0263356
20.03 0.0561113
20.075 0.0578144
20.12 0.051257
20.165 0.00784808
20.21 0.0357556
20.255 0.00863415
20.3 -0.0253561
20.345 0.0818885
20.39 0.0120961
20.435 0.0160433
20.48 0.0520738
20.525 0.0420772
20.57 0.0808934
20.615 0.0611022
20.66 0.0193667
20.705 -0.00245008
20.75 -0.000520664
20.795 0.057192
20.84 0.0411551
20.885 0.0304769
20.93 0.0717109
20.975 0.023741
21.02 0.069761
21.065 0.0546454
21.11 0.0142224
21.155 0.0510966
21.2 0.0447526
21.245 -0.00183033
21.29 0.0466482
21.335 0.0464298
21.38 0.0421334
21.425 -0.00670891
21.47 0.043132
21.515 -0.0159936
21.56 0.0880514
21.605 0.0921271
21.65 0.050931
21.695 0.0312718
21.74 0.0419387
21.785 0.0896085
21.83 0.0596684
21.875 0.027518
21.92 0.0371528
21.965 0.0474361
22.01 0.0710721
22.055 0.0919606
22.1 0.0891192
22.145 0.018539
22.19 0.0594948
22.235 0.0463009
22.28 0.0820264
22.325 0.0849522
22.37 0.0955501
22.415 0.0613739
22.46 0.0379583
22.505 0.0780303
22.55 0.0660711
22.595 0.06284
22.64 0.0561272
22.685 0.0899559
22.73 0.046531
22.775 0.067024
22.82 0.0504092
22.865 0.0871027
22.91 0.0372504
22.955 0.0495695
23 0.0313198
23.045 0.00641668
23.09 0.030385
23.135 0.042502
23.18 0.0258219
23.225 0.0491251
23.27 0.109612
23.315 0.025367
23.36 0.0434352
23.405 0.0565851
23.45 0.00573971
23.495 0.0429981
23.54 0.0227422
23.585 0.0840631
23.63 0.0732175
23.675 0.0463305
23.72 0.0315314
23.765 0.0869104
23.81 0.0800815
23.855 0.15138
23.9 0.080992
23.945 0.151542
23.99 0.203317
24.035 0.109014
24.08 -0.0121123
24.125 0.0356127
24.17 0.00934655
24.215 -0.00849599
24.26 0.00775944
24.305 -0.00151084
24.35 -0.0104764
24.395 0.0327154
24.44 -0.00289729
24.485 0.0126738
24.53 0.00279716
24.575 0.0481018
24.62 0.0674089
24.665 0.146357
24.71 0.270826
24.755 0.532462
24.8 0.963009
24.845 2.39192
24.89 4.76523
24.935 8.31225
24.98 10.0842
25.025 9.87467
25.07 7.04892
25.115 4.01456
25.16 1.41349
25.205 0.411054
25.25 0.151913
25.295 0.088237
25.34 0.0884775
25.385 0.0549559
25.43 0.0698625
25.475 0.0406794
25.52 0.0632539
25.565 0.0546025
25.61 0.0643704
25.655 0.0287966
25.7 0.0057538
25.745 0.0239374
25.79 0.0357521
25.835 0.000897149
25.88 0.0415391
25.925 -0.0108386
25.97 0.0160158
26.015 0.0486281
26.06 0.0013371
26.105 0.0349963
26.15 0.00377043
26.195 0.0120935
26.24 0.0200834
26.285 0.0568063
26.33 0.0484477
26.375 0.0427655
26.42 0.0673562
26.465 0.1068
26.51 0.088569
26.555 0.114853
26.6 0.133795
26.645 0.0684388
26.69 0.0675101
26.735 0.0476467
26.78 0.023988
26.825 0.0138087
26.87 0.0122508
26.915 0.0799687
26.96 0.0163292
27.005 0.0645214
27.05 0.0872083
27.095 0.0933108
27.14 0.115651
27.185 0.101784
27.23 0.0952437
27.275 0.117217
27.32 0.100387
27.365 -0.0138283
27.41 0.0547061
27.455 0.0301391
27.5 0.0211823
27.545 -0.0183709
27.59 0.00344251
27.635 0.0448261
27.68 0.0334733
27.725 0.0158959
27.77 0.0551374
27.815 0.0399021
27.86 0.0385943
27.905 0.0697972
27.95 0.017782
27.995 0.0295517
28.04 0.000497036
28.085 0.0740468
28.13 0.0533135
28.175 0.0657147
28.22 0.0930012
28.265 0.124139
28.31 0.0350897
28.355 0.0226412
28.4 -0.0205989
28.445 0.0333653
28.49 0.0606146
28.535 0.0725038
28.58 0.0783928
28.625 0.0130514
28.67 0.0495558
28.715 0.0785037
28.76 0.0147888
28.805 0.0358743
28.85 0.0448449
28.895 0.0415227
28.94 0.0396316
28.985 -0.0254405
29.03 0.0514372
29.075 0.0445921
29.12 0.0402698
29.165 0.00883481
29.21 -0.0130595
29.255 0.0508986
29.3 -0.0193058
29.345 0.0303521
29.39 0.0197912
29.435 0.0640204
29.48 0.0646127
29.525 0.213023
29.57 0.170177
29.615 0.36178
29.66 0.516942
29.705 0.447333
29.75 0.335953
29.795 0.249681
29.84 0.0904059
29.885 0.0149197
29.93 0.0181029
29.975 0.0455422
30.02 0.00444701
30.065 0.0606834
30.11 0.157053
30.155 0.17232
30.2 0.218202
30.245 0.155787
30.29 0.147373
30.335 0.107946
30.38 0.048744
30.425 0.100457
30.47 0.0119129
30.515 0.0429339
30.56 0.0637536
30.605 0.0464932
30.65 -0.0117255
30.695 0.0386878
30.74 0.0345355
30.785 0.000618039
30.83 0.0440768
30.875 0.0168043
30.92 0.0271199
30.965 0.108622
31.01 0.101034
31.055 0.111559
31.1 0.265767
31.145 0.293563
31.19 0.48104
31.235 1.07379
31.28 2.70327
31.325 5.98415
31.37 11.4282
31.415 14.4852
31.46 10.941
31.505 6.59681
31.55 2.8403
31.595 1.05139
31.64 0.621757
31.685 0.478383
31.73 0.593812
31.775 0.567299
31.82 0.434071
31.865 0.396355
31.91 0.247541
31.955 0.130122
32 0.0847874
32.045 0.0532369
32.09 0.0474879
32.135 0.0480612
32.18 0.021523
32.225 0.0290054
32.27 0.00486465
32.315 -0.00229487
32.36 0.0212898
32.405 0.0061528
32.45 0.0237425
32.495 0.0271292
32.54 0.0210778
32.585 0.017612
32.63 0.0412848
32.675 0.0415982
32.72 -0.00875563
32.765 0.0171806
32.81 -0.0199204
32.855 -0.00874056
32.9 -0.00295137
32.945 0.0308809
32.99 0.00316181
33.035 0.0306065
33.08 0.00398225
33.125 0.0417146
33.17 0.0182273
33.215 0.0585501
33.26 0.0446231
33.305 0.0159201
33.35 0.0533824
33.395 -0.00186262
33.44 0.00843825
33.485 0.0132308
33.53 0.0698913
33.575 0.0255442
33.62 0.0260608
33.665 0.041826
33.71 0.0846788
33.755 0.164368
33.8 0.254867
33.845 0.406287
33.89 0.484124
33.935 0.553817
33.98 0.481741
34.025 0.424182
34.07 0.330856
34.115 0.321383
34.16 0.311426
34.205 0.293341
34.25 0.185294
34.295 0.131651
34.34 0.0526018
34.385 0.0381184
34.43 0.0527414
34.475 0.0894048
34.52 0.111647
34.565 0.175948
34.61 0.175087
34.655 0.202559
34.7 0.150245
34.745 0.071094
34.79 0.0972117
34.835 0.0490272
34.88 0.0372104
34.925 0.0634666
34.97 0.046211
35.015 0.0380545
35.06 0.032518
35.105 0.0190768
35.15 0.0229481
35.195 0.006365
35.24 0.0220914
35.285 0.0386547
35.33 0.0229382
35.375 0.0203349
35.42 0.0466813
35.465 -0.0153409
35.51 -0.00740943
35.555 -0.00391756
35.6 0.0149739
35.645 0.00789117
35.69 -0.0223996
35.735 0.00369902
35.78 0.0216235
35.825 -0.0247817
35.87 -0.00929945
35.915 -0.0101896
35.96 0.00213445
36.005 0.0227547
36.05 0.0451672
36.095 0.0307128
36.14 0.0189842
36.185 0.0315292
36.23 -0.0249683
36.275 0.014767
36.32 0.0124947
36.365 0.0109066
36.41 -0.00613474
36.455 0.01356
36.5 0.00508181
36.545 0.0157146
36.59 -0.0148073
36.635 0.0261571
36.68 0.0529459
36.725 0.030145
36.77 0.00291201
36.815 0.00475195
36.86 -0.0234933
36.905 -0.0075989
36.95 -0.00104042
36.995 -0.0127003
37.04 0.0158563
37.085 0.0353308
37.13 0.0105755
37.175 0.00547884
37.22 0.025615
37.265 0.0219707
37.31 0.0650336
37.355 0.0826964
37.4 0.120252
37.445 0.179587
37.49 0.241619
37.535 0.262794
37.58 0.234638
37.625 0.201927
37.67 0.207402
37.715 0.29467
37.76 0.4514
37.805 0.783099
37.85 1.23773
37.895 1.62426
37.94 1.57265
37.985 1.2457
38.03 0.826444
38.075 0.458434
38.12 0.232494
38.165 0.17844
38.21 0.145311
38.255 0.110321
38.3 0.143709
38.345 0.119835
38.39 0.115839
38.435 0.107788
38.48 0.0978615
38.525 0.0597396
38.57 0.0229295
38.615 -0.0146018
38.66 -0.00914148
38.705 -0.0029153
38.75 -0.00605446
38.795 -0.00318988
38.84 -0.00458548
38.885 -0.00181108
38.93 -0.00562383
38.975 0.0123789
39.02 0.00233875
39.065 0.0099939
39.11 0.0164894
39.155 0.0119239
39.2 0.023266
39.245 0.00617534
39.29 0.00638494
39.335 -0.0135718
39.38 0.0650554
39.425 0.116765
39.47 0.143999
39.515 0.0888685
39.56 0.0339754
39.605 -0.0177639
39.65 -0.0015795
39.695 -0.0133963
39.74 -0.0125703
39.785 -0.003228
39.83 0.0659352
39.875 0.0792351
39.92 0.109521
39.965 0.131451
40.01 0.12349
40.055 0.0898144
40.1 0.0782024
40.145 0.0809502
40.19 0.0256151
40.235 0.00190059
40.28 0.00872535
40.325 -0.0162197
40.37 -0.00360556
40.415 0.00751732
40.46 -0.0159351
40.505 0.00442178
40.55 0.0216135
40.595 -0.00315745
40.64 -0.000829488
40.685 0.0122471
40.73 0.0185424
40.775 0.0312852
40.82 0.0635132
40.865 0.068909
40.91 0.0416067
40.955 0.0307471
41 0.0172477
41.045 0.0300308
41.09 -0.00105869
41.135 0.0101748
41.18 -0.0202217
41.225 0.0108067
41.27 0.0228528
41.315 0.0218218
41.36 0.00506789
41.405 0.00842841
41.45 0.0216478
41.495 0.0369476
41.54 0.0101827
41.585 0.0296468
41.63 0.0267924
41.675 0.0397095
41.72 -0.0175616
41.765 0.0323526
41.81 0.0447659
41.855 0.0157274
41.9 0.042082
41.945 0.033067
41.99 0.0113608
42.035 -0.00499684
42.08 0.0252638
42.125 0.0141901
42.17 0.0115185
42.215 -0.00519048
42.26 0.0320491
42.305 -0.00596785
42.35 0.00187374
42.395 0.0135002
42.44 -0.00891513
42.485 0.00155705
42.53 -0.00825057
42.575 -0.0108665
42.62 0.00885048
42.665 0.0106235
42.71 0.0482828
42.755 0.0299622
42.8 0.0220802
42.845 0.0229221
42.89 0.0206628
42.935 0.0158732
42.98 -0.00809272
43.025 0.0127991
43.07 -0.0214905
43.115 -0.0122501
43.16 0.0233723
43.205 0.012627
43.25 0.0541579
43.295 0.0111141
43.34 0.0258236
43.385 -0.0153233
43.43 0.0331306
43.475 0.0192148
43.52 -0.00278315
43.565 -0.0115924
43.61 0.0362978
43.655 -0.0114534
43.7 0.0166139
43.745 0.00446772
43.79 -0.000440007
43.835 0.0134829
43.88 0.0179178
43.925 -0.0228864
43.97 0.00781478
44.015 -0.0039496
44.06 0.0284479
44.105 0.0316854
44.15 0.0421739
44.195 0.0351765
44.24 0.029734
44.285 0.0477571
44.33 0.0462339
44.375 0.0761009
44.42 0.0525178
44.465 0.0688519
44.51 0.0131414
44.555 0.0608892
44.6 0.205796
44.645 0.16513
44.69 0.194775
44.735 0.0911733
44.78 0.176708
44.825 0.1334
44.87 0.205726
44.915 0.38152
44.96 0.638478
45.005 0.953669
45.05 1.41516
45.095 1.82011
45.14 2.00561
45.185 2.03158
45.23 1.91525
45.275 1.60251
45.32 1.0653
45.365 0.678842
45.41 0.437649
45.455 0.218271
45.5 0.173298
45.545 0.0637683
45.59 0.0712514
45.635 0.0324609
45.68 -0.0156016
45.725 0.00407786
45.77 0.0469163
45.815 -0.0141923
45.86 0.00522722
45.905 0.0301452
45.95 0.0867006
45.995 0.182048
46.04 0.238422
46.085 0.353866
46.13 0.493756
46.175 0.621241
46.22 0.737486
46.265 0.729751
46.31 0.751837
46.355 0.667483
46.4 0.534244
46.445 0.348252
46.49 0.265978
46.535 0.1698
46.58 0.0423995
46.625 0.013028
46.67 0.0092096
46.715 0.015504
46.76 0.00703546
46.805 0.0147938
46.85 -7.23402e-05
46.895 0.00029704
46.94 0.0353051
46.985 0.00844303
47.03 0.00783687
47.075 -0.00747846
47.12 0.016243
47.165 0.0415717
47.21 0.0551937
47.255 0.0697822
47.3 0.052982
47.345 0.0484392
47.39 0.0563545
47.435 0.0237423
47.48 0.0528222
47.525 0.0125663
47.57 -0.0216093
47.615 0.0279391
47.66 0.0112389
47.705 -0.00140612
47.75 0.0224358
47.795 0.0159495
47.84 0.0219682
47.885 0.0328684
47.93 -0.0189892
47.975 -0.00870725
48.02 -0.000278723
48.065 0.0334759
48.11 0.0204183
48.155 0.00985191
48.2 -0.0113903
48.245 0.00101794
48.29 -0.0125058
48.335 0.00730174
48.38 0.0026776
48.425 0.0201175
48.47 -0.0107855
48.515 0.0328748
48.56 0.0749739
48.605 0.0833144
48.65 0.144909
48.695 0.193262
48.74 0.193301
48.785 0.187093
48.83 0.236621
48.875 0.191925
48.92 0.244902
48.965 0.206573
49.01 0.215188
49.055 0.250964
49.1 0.300327
49.145 0.375216
49.19 0.344884
49.235 0.23363
49.28 0.131195
49.325 0.0936856
49.37 0.0669154
49.415 0.0536854
49.46 0.0605871
49.505 0.0549835
49.55 0.0743614
49.595 0.0454472
49.64 0.0376303
49.685 0.0612847
49.73 0.0326249
49.775 0.0195891
49.82 0.0276607
49.865 0.0139449
49.91 0.0181936
49.955 -0.010546
50 0.000495637
50.045 0.00692984
50.09 0.0224769
50.135 0.0228773
50.18 0.0186238
50.225 0.056848
50.27 0.0622694
50.315 0.0740191
50.36 0.0859158
50.405 0.0877915
50.45 0.0454252
50.495 0.034786
50.54 0.026086
50.585 0.0141844
50.63 -0.00564839
50.675 -0.0202471
50.72 0.00115623
50.765 0.00267388
50.81 0.00602415
50.855 -0.00456655
50.9 0.00881223
50.945 0.0170698
50.99 0.0148094
51.035 -0.000630612
51.08 -0.00461239
51.125 -0.00848588
51.17 0.00699956
51.215 0.0363421
51.26 0.0473251
51.305 0.0758738
51.35 0.0692005
51.395 0.0527505
51.44 0.0832464
51.485 0.0586582
51.53 0.047421
51.575 0.0477017
51.62 0.0416338
51.665 0.0470554
51.71 0.0449037
51.755 0.0172092
51.8 0.0151917
51.845 0.0198503
51.89 0.00497498
51.935 0.0074487
51.98 -0.00694796
52.025 -0.00279419
52.07 -0.000594761
52.115 0.000387765
52.16 0.0126151
52.205 0.00470206
52.25 -0.00631608
52.295 -0.0018166
52.34 -0.00886731
52.385 -0.0100864
52.43 0.0134411
52.475 -0.00880248
52.52 -0.00519937
52.565 -0.00939431
52.61 -0.0163022
52.655 0.000835324
52.7 0.0069067
52.745 0.0177075
52.79 -0.00174404
52.835 -0.0171035
52.88 0.0177587
52.925 0.0159827
52.97 0.0199256
53.015 0.016256
53.06 0.00896335
53.105 0.0509813
53.15 0.0326653
53.195 0.0403023
53.24 0.0105123
53.285 0.00752609
53.33 -0.00808736
53.375 -0.00297731
53.42 -0.00967866
53.465 -0.0208526
53.51 0.00672167
53.555 0.00539749
53.6 -0.00361791
53.645 0.0180566
53.69 0.0268995
53.735 0.0130873
53.78 -0.00245581
53.825 0.00872484
53.87 -0.0009956
53.915 -0.00643474
53.96 -0.0185127
54.005 -0.00382022
54.05 0.0090725
54.095 0.0345217
54.14 0.0841396
54.185 0.0701131
54.23 0.0379018
54.275 0.0152864
54.32 0.00614286
54.365 0.00280422
54.41 0.0325336
54.455 0.0215245
54.5 0.033223
54.545 0.0239792
54.59 0.0341185
54.635 0.0400238
54.68 0.022784
54.725 0.0235519
54.77 0.0142295
54.815 0.0142591
54.86 0.0119415
54.905 0.017036
54.95 0.0211877
54.995 0.0359547
55.04 0.0263208
55.085 0.0169545
55.13 0.0199525
55.175 0.00583145
55.22 0.0129115
55.265 0.00630427
55.31 0.00586951
55.355 1.28032e-05
55.4 0.00380307
55.445 0.0383879
55.49 0.0303622
55.535 0.0069177
55.58 0.0135984
55.625 -0.00589166
55.67 -0.0195844
55.715 0.00682891
55.76 -0.0195372
55.805 0.0225903
55.85 0.0115936
55.895 -0.0186484
55.94 0.0108463
55.985 0.00772856
56.03 0.0171303
56.075 -6.92683e-05
56.12 -0.0133729
56.165 -0.0102671
56.21 0.0297762
56.255 -0.00261825
56.3 0.0102272
56.345 0.0133183
56.39 0.0588819
56.435 0.0150961
56.48 0.00285259
56.525 0.0215837
56.57 0.0287434
56.615 0.00960825
56.66 -0.00318314
56.705 0.00489685
56.75 0.0115374
56.795 -0.00971628
56.84 -0.00338224
56.885 -0.0068681
56.93 0.00653914
56.975 0.0100182
57.02 0.00581557
57.065 -0.0023606
57.11 -0.00588097
57.155 0.0246459
57.2 0.0272969
57.245 0.0236352
57.29 0.043002
57.335 0.0269747
57.38 -0.0139036
57.425 0.0161084
57.47 -0.00392886
57.515 -0.0018229
57.56 -0.0160451
57.605 -0.00923143
57.65 0.00858903
57.695 0.0185397
57.74 0.000271468
57.785 0.00596585
57.83 -0.00729189
57.875 -0.00391954
57.92 0.000854934
57.965 0.0118315
58.01 -0.0118832
58.055 -0.0135696
58.1 0.0265116
58.145 -0.0108698
58.19 0.00972872
58.235 0.0116516
58.28 0.00185217
58.325 0.0283638
58.37 0.0103527
58.415 -0.00760824
58.46 0.0212147
58.505 0.0620601
58.55 0.05454
58.595 0.0440004
58.64 0.0351672
58.685 0.0223571
58.73 0.00196873
58.775 0.0163021
58.82 -0.00188115
58.865 0.0110414
58.91 0.0209823
58.955 0.0193954
59 0.0245612
59.045 0.0511735
59.09 0.0143723
59.135 0.056083
59.18 0.0413799
59.225 0.0817464
59.27 0.048236
59.315 0.0527125
59.36 0.0539987
59.405 0.0295446
59.45 0.0289808
59.495 0.0056859
59.54 -0.0182306
59.585 0.00803892
59.63 0.0253854
59.675 0.00665832
59.72 0.003534
59.765 -0.00722111
59.81 -0.0123149
59.855 0.00569056
59.9 0.0188917
59.945 0.0268205
59.99 0.0130283
60.035 -0.010992
60.08 -0.0112961
60.125 0.0306385
60.17 0.00134447
60.215 0.0574244
60.26 0.00887031
60.305 -0.0147571
60.35 -0.0050746
60.395 0.0249757
60.44 -0.00064904
60.485 -0.00233691
60.53 0.00583962
60.575 0.0254068
60.62 -0.00441401
60.665 -0.00769202
60.71 -0.00339883
60.755 0.00646647
60.8 -0.00579697
60.845 -0.00383682
60.89 0.00821356
60.935 0.00582023
60.98 0.0141041
61.025 0.0148554
61.07 0.0323681
61.115 0.0151972
61.16 0.0443228
61.205 0.0836706
61.25 0.13178
61.295 0.203471
61.34 0.335584
61.385 0.399779
61.43 0.549486
61.475 0.648869
61.52 0.714094
61.565 0.762829
61.61 0.859402
61.655 0.847426
61.7 0.777183
61.745 0.714784
61.79 0.618319
61.835 0.444347
61.88 0.342089
61.925 0.208062
61.97 0.17576
62.015 0.0889684
62.06 0.0506165
62.105 0.0137736
62.15 0.0135555
62.195 0.00234399
62.24 -0.00484285
62.285 0.00189128
62.33 -0.00870578
62.375 -0.0130887
62.42 -0.0075006
62.465 0.00851976
62.51 -0.00622755
62.555 0.00923102
62.6 0.00727903
62.645 -0.00932233
62.69 0.00644273
62.735 -0.0110375
62.78 0.00489329
62.825 -0.00359934
62.87 -0.00443101
62.915 0.0123694
62.96 0.0296403
63.005 0.00641111
63.05 -0.00271342
63.095 -0.00989223
63.14 -0.00772991
63.185 0.00031418
63.23 0.0171642
63.275 0.0157047
63.32 0.0216728
63.365 0.000227386
63.41 0.022857
63.455 0.00664687
63.5 -0.00668543
63.545 0.00118406
63.59 0.00642135
63.635 0.043173
63.68 0.0232579
63.725 -0.000191467
63.77 0.0411424
63.815 0.034447
63.86 0.00963736
63.905 0.0129027
63.95 0.0168781
63.995 -0.00729824
64.04 0.0112259
64.085 0.00408644
64.13 0.00951164
64.175 0.0105738
64.22 0.00627911
64.265 0.0253107
64.31 0.0131836
64.355 0.0216468
64.4 0.0171935
64.445 0.0228317
64.49 0.0142411
64.535 -0.00307497
64.58 0.00906328
64.625 -0.00677785
64.67 -0.00104378
64.715 0.0188343
64.76 0.0180949
64.805 0.0274592
64.85 0.0282671
64.895 0.0441503
64.94 0.00991636
64.985 -0.00832738
65.03 0.0391449
65.075 0.0454126
65.12 0.0230804
65.165 0.0303637
65.21 0.0121126
65.255 0.0153708
65.3 0.00292306
65.345 0.00268702
65.39 0.0176865
65.435 0.0057345
65.48 0.009502
65.525 0.0260098
65.57 0.015724
65.615 0.0182845
65.66 0.0112606
65.705 0.00506633
65.75 -0.0124708
65.795 0.00239333
65.84 0.000308074
65.885 0.00827083
65.93 0.0515247
65.975 0.0544407
66.02 0.0209029
66.065 0.0397156
66.11 0.0483373
66.155 0.0540389
66.2 0.0524338
66.245 0.0587075
66.29 0.119163
66.335 0.105772
66.38 0.165716
66.425 0.208676
66.47 0.248354
66.515 0.291093
66.56 0.314088
66.605 0.355511
66.65 0.322144
66.695 0.315496
66.74 0.324101
66.785 0.294769
66.83 0.290717
66.875 0.22926
66.92 0.171387
66.965 0.135358
67.01 0.111777
67.055 0.0896814
67.1 0.0391088
67.145 0.0332831
67.19 0.0315273
67.235 0.0435459
67.28 0.011141
67.325 -0.0148337
67.37 0.0191209
67.415 0.0240101
67.46 -0.0128085
67.505 -0.00734985
67.55 0.0248404
67.595 0.0175707
67.64 0.0259313
67.685 0.00844432
67.73 0.0593892
67.775 0.00621338
67.82 0.0360484
67.865 0.0175691
67.91 0.0112286
67.955 -0.011521
68 0.000965384
68.045 -0.00499134
68.09 0.021519
68.135 0.013154
68.18 0.0383097
68.225 0.00563546
68.27 0.016844
68.315 0.00516043
68.36 0.0019743
68.405 -0.000993292
68.45 0.00243526
68.495 0.0075972
68.54 0.0228853
68.585 -0.00128754
68.63 0.0160292
68.675 -0.0101976
68.72 0.0012668
68.765 -0.0161536
68.81 0.0210144
68.855 -0.0124852
68.9 0.0147683
68.945 0.00117814
68.99 0.0140913
69.035 0.00407712
69.08 0.0258768
69.125 -0.00137486
69.17 -0.00213168
69.215 0.00445803
69.26 0.00104935
69.305 -0.0124348
69.35 0.00920863
69.395 -0.0067823
69.44 0.00182334
69.485 0.0153703
69.53 0.0105937
69.575 0.0225037
69.62 0.00138055
69.665 0.0104875
69.71 -0.0069966
69.755 -0.0052371
69.8 0.0079666
69.845 0.000554375
69.89 -0.00591481
69.935 0.0116457
69.98 -0.00707422
70.025 -0.00537226
70.07 0.0136167
70.115 0.0123673
70.16 -0.0100906
70.205 0.0174167
70.25 0.00921802
70.295 -0.000348153
70.34 -0.000209928
70.385 0.0120357
70.43 -0.0113039
70.475 0.0213923
70.52 0.0239963
70.565 0.000152871
70.61 0.0149166
70.655 -0.00674158
70.7 0.0107447
70.745 0.0127478
70.79 0.0192309
70.835 0.0175663
70.88 0.014962
70.925 0.0257726
70.97 0.0218903
71.015 0.0419691
71.06 0.025164
71.105 0.0529722
71.15 0.0463146
71.195 0.0106972
71.24 -0.00298921
71.285 -0.0161093
71.33 0.00922875
71.375 0.0106938
71.42 0.0108897
71.465 0.0247784
71.51 0.0446106
71.555 0.0505054
71.6 0.0746049
71.645 0.0593635
71.69 0.0438785
71.735 0.0417458
71.78 0.0279113
71.825 0.0137132
71.87 -0.00731582
71.915 0.0183124
71.96 0.0184222
72.005 0.00536804
72.05 0.0210131
72.095 0.00868269
72.14 0.012456
72.185 0.00947845
72.23 -0.00361033
72.275 -0.00102938
72.32 0.0159173
72.365 0.00123669
72.41 0.00551122
72.455 0.00646979
72.5 -0.00261775
72.545 0.00291948
72.59 -0.00909055
72.635 0.019336
72.68 0.0181622
72.725 -0.0045869
72.77 0.0311412
72.815 0.0358786
72.86 0.0433404
72.905 0.0297727
72.95 0.0650648
72.995 0.0312558
73.04 0.0390814
73.085 0.0183823
73.13 0.0395647
73.175 0.0186759
73.22 0.0183099
73.265 0.0366596
73.31 0.0262597
73.355 0.030188
73.4 0.0464523
73.445 0.0271213
73.49 0.00912
73.535 0.00458831
73.58 0.00966556
73.625 -0.00177419
73.67 0.0161413
73.715 -0.0171096
73.76 0.0130157
73.805 0.0313708
73.85 0.0443124
73.895 0.0528126
73.94 0.0297753
73.985 0.0102295
74.03 0.0224308
74.075 0.0183261
74.12 0.0298549
74.165 0.00898998
74.21 0.0187446
74.255 0.0289391
74.3 0.0237386
74.345 0.0198996
74.39 0.000840094
74.435 0.0105736
74.48 0.0124217
74.525 0.0324195
74.57 0.0115789
74.615 -0.0133748
74.66 0.0168863
74.705 0.0335257
74.75 0.00169099
74.795 -0.00632871
74.84 -0.00595135
74.885 -0.0162435