File: data/xrd/xy/2019-09-30T17_18_05.146721+00_00_LBL_G4.xy
'Id: "" Comment: "Integrate frame diethylpropane13dia_01_001.gfrmwith cursor Wedge Cursor #2" Operator: "UC Berkeley" Anode: "Co" Scantype: "TwoTheta" TimePerStep: "600"
4.045 -0.0238028
4.085 0.0148054
4.125 0.0246847
4.165 0.0457776
4.205 -0.022821
4.245 0.0790411
4.285 0.0569964
4.325 0.0597181
4.365 0.0657764
4.405 0.119631
4.445 0.103637
4.485 0.0984708
4.525 0.0479798
4.565 0.0796072
4.605 0.0676014
4.645 0.0934177
4.685 0.0691917
4.725 0.0404275
4.765 0.0816927
4.805 0.0360997
4.845 0.0723598
4.885 0.0322459
4.925 0.0857099
4.965 0.0712406
5.005 0.0709939
5.045 0.0475846
5.085 0.0671465
5.125 0.0405603
5.165 0.100531
5.205 0.0835159
5.245 0.0479693
5.285 0.088279
5.325 0.0609311
5.365 0.0448282
5.405 0.0641386
5.445 0.0444153
5.485 0.117773
5.525 0.0664828
5.565 0.0664331
5.605 0.0897556
5.645 0.0400139
5.685 0.0889817
5.725 0.0569605
5.765 0.110493
5.805 0.0624046
5.845 0.0515203
5.885 0.0582559
5.925 0.0766663
5.965 0.0785336
6.005 0.0453232
6.045 0.0768785
6.085 0.0630578
6.125 0.0867142
6.165 0.0591116
6.205 0.0603698
6.245 0.0971944
6.285 0.11368
6.325 0.0775867
6.365 0.0913586
6.405 0.0502294
6.445 0.0707943
6.485 0.0696435
6.525 0.0379004
6.565 0.0743784
6.605 0.0334899
6.645 0.0385351
6.685 0.053024
6.725 0.0955414
6.765 0.0152973
6.805 0.0352358
6.845 0.0666943
6.885 0.0460873
6.925 0.0464108
6.965 0.0752773
7.005 0.0507655
7.045 0.0557866
7.085 0.0374157
7.125 0.066452
7.165 0.0158039
7.205 0.0109641
7.245 0.0752129
7.285 0.0192715
7.325 0.0696108
7.365 0.0779534
7.405 0.0531261
7.445 0.029577
7.485 0.0498298
7.525 0.0305568
7.565 0.0210895
7.605 0.0318269
7.645 0.0500191
7.685 0.0933906
7.725 0.0377382
7.765 0.0586661
7.805 0.0465688
7.845 0.0364536
7.885 0.0076735
7.925 0.0639963
7.965 0.044821
8.005 0.0274562
8.045 0.0367703
8.085 0.0519463
8.125 0.055407
8.165 0.0720133
8.205 0.0610203
8.245 0.0389255
8.285 0.0703147
8.325 0.0474178
8.365 0.0345436
8.405 0.089648
8.445 0.0201747
8.485 0.0596859
8.525 0.0779888
8.565 0.0932493
8.605 0.0138138
8.645 0.0888546
8.685 0.0717331
8.725 0.0286004
8.765 0.0792592
8.805 0.0239604
8.845 0.0239176
8.885 0.026997
8.925 -0.0105311
8.965 0.0275685
9.005 0.0363033
9.045 0.0340223
9.085 0.05653
9.125 0.0229369
9.165 0.0334911
9.205 0.0343914
9.245 0.0185224
9.285 0.0267635
9.325 0.00409079
9.365 0.0107662
9.405 0.063204
9.445 0.00770809
9.485 0.00793529
9.525 0.047418
9.565 0.0327433
9.605 0.0393223
9.645 0.0398168
9.685 0.0650556
9.725 0.1113
9.765 0.208491
9.805 0.280477
9.845 0.374892
9.885 0.253171
9.925 0.173693
9.965 0.103391
10.005 0.0801405
10.045 0.00291142
10.085 0.0422189
10.125 -0.00517841
10.165 0.0139179
10.205 0.0199521
10.245 0.0431541
10.285 0.032766
10.325 0.0679331
10.365 0.152613
10.405 0.274919
10.445 0.39886
10.485 0.338672
10.525 0.273847
10.565 0.185831
10.605 0.105336
10.645 0.0206855
10.685 0.0528647
10.725 0.035762
10.765 0.0325266
10.805 0.0696381
10.845 0.00767051
10.885 0.0289703
10.925 0.0282482
10.965 0.0304163
11.005 -0.0265267
11.045 0.00127697
11.085 0.0481565
11.125 0.0492615
11.165 0.0374052
11.205 0.0138434
11.245 0.0598877
11.285 0.0624458
11.325 0.0563486
11.365 0.0769886
11.405 0.0126541
11.445 0.0472324
11.485 0.0239035
11.525 0.009131
11.565 0.00916154
11.605 0.0393014
11.645 0.00930777
11.685 -0.0084406
11.725 0.0197859
11.765 0.0793175
11.805 0.0458025
11.845 0.0960052
11.885 0.165234
11.925 0.158934
11.965 0.139838
12.005 0.102353
12.045 0.0995658
12.085 0.0510759
12.125 0.022178
12.165 0.018634
12.205 0.0214047
12.245 0.0353108
12.285 -0.00978387
12.325 0.0141481
12.365 0.0346966
12.405 0.0470525
12.445 0.0292201
12.485 0.0488485
12.525 0.0678595
12.565 0.0461406
12.605 0.0351542
12.645 0.0313153
12.685 0.0278901
12.725 0.0388023
12.765 -0.00279032
12.805 -0.0178501
12.845 0.0351683
12.885 0.0451107
12.925 0.00611434
12.965 -0.0108084
13.005 0.0590217
13.045 0.0196596
13.085 0.0747583
13.125 0.0737629
13.165 0.0687819
13.205 0.0833053
13.245 0.0779817
13.285 0.125882
13.325 0.0557626
13.365 0.0386165
13.405 0.0305745
13.445 0.0458692
13.485 0.0543862
13.525 0.0201537
13.565 0.0122102
13.605 0.0377416
13.645 0.0189615
13.685 -0.00190244
13.725 0.00538132
13.765 0.0349508
13.805 -0.000324718
13.845 0.0323446
13.885 0.033297
13.925 0.0423061
13.965 0.035989
14.005 0.103807
14.045 0.113223
14.085 0.0866509
14.125 0.048355
14.165 0.0324224
14.205 0.00119672
14.245 0.00241654
14.285 -0.0144281
14.325 -0.00437148
14.365 0.0273018
14.405 0.0173573
14.445 -0.0165265
14.485 0.0122639
14.525 0.00379072
14.565 0.0191124
14.605 0.0375722
14.645 -0.0174925
14.685 0.029922
14.725 0.00282802
14.765 -0.00835306
14.805 0.0213215
14.845 2.7914e-06
14.885 0.0144924
14.925 -0.0226256
14.965 0.00958255
15.005 -0.0143814
15.045 0.0278801
15.085 0.0227327
15.125 0.00117342
15.165 -0.00560295
15.205 0.000732596
15.245 -0.00277151
15.285 -0.0174491
15.325 0.0255611
15.365 -0.0103623
15.405 -0.0100732
15.445 0.0256749
15.485 0.00166574
15.525 -0.0148379
15.565 -0.000114622
15.605 0.0196601
15.645 -0.00662745
15.685 0.0123488
15.725 0.0110112
15.765 0.0125305
15.805 -0.0162938
15.845 0.0394274
15.885 0.0214024
15.925 0.023391
15.965 0.010198
16.005 0.00974185
16.045 -0.00368645
16.085 0.0378072
16.125 0.0164651
16.165 0.00997502
16.205 -0.00348672
16.245 -0.0223201
16.285 0.0171647
16.325 0.0156425
16.365 0.0230993
16.405 0.0643614
16.445 0.0146847
16.485 0.0364469
16.525 0.0520709
16.565 0.042828
16.605 0.0930645
16.645 0.10848
16.685 0.153738
16.725 0.190142
16.765 0.162526
16.805 0.136059
16.845 0.0646196
16.885 0.0250521
16.925 0.0205479
16.965 0.0366008
17.005 0.0592786
17.045 0.0518193
17.085 0.077688
17.125 0.0349884
17.165 0.0146963
17.205 0.0242769
17.245 0.00667366
17.285 0.0197742
17.325 -0.00118797
17.365 0.0247406
17.405 -0.0150238
17.445 0.0414408
17.485 -0.0170886
17.525 0.0210125
17.565 0.0269157
17.605 0.0243703
17.645 0.0403043
17.685 0.031534
17.725 0.0614316
17.765 0.0537939
17.805 0.0302583
17.845 -0.00740268
17.885 0.0090953
17.925 0.0497209
17.965 0.00724213
18.005 0.0524136
18.045 0.042656
18.085 0.0379573
18.125 0.0334369
18.165 0.0486627
18.205 0.0376526
18.245 0.0533923
18.285 0.127125
18.325 0.18408
18.365 0.199129
18.405 0.158242
18.445 0.0768396
18.485 0.0504236
18.525 0.00861518
18.565 -0.00933816
18.605 0.0370086
18.645 0.0272878
18.685 0.0130532
18.725 0.00940313
18.765 0.00227659
18.805 0.0231494
18.845 0.0128355
18.885 0.0323468
18.925 0.0295674
18.965 -0.00187253
19.005 0.0244497
19.045 0.0453688
19.085 0.111266
19.125 0.144158
19.165 0.15148
19.205 0.112477
19.245 0.0819532
19.285 0.0704741
19.325 0.0508315
19.365 0.0189248
19.405 0.0368924
19.445 0.0104763
19.485 0.0299174
19.525 0.028519
19.565 0.101758
19.605 0.0945694
19.645 0.135028
19.685 0.104165
19.725 0.0621692
19.765 0.0422737
19.805 0.0140448
19.845 0.0395585
19.885 0.0346226
19.925 0.0452539
19.965 0.0534092
20.005 0.0515001
20.045 -0.00207906
20.085 0.0601603
20.125 0.0371637
20.165 0.030466
20.205 0.0480649
20.245 0.0295057
20.285 0.0324518
20.325 0.0376849
20.365 -0.0103845
20.405 -0.0138467
20.445 0.000933053
20.485 0.0802991
20.525 0.127827
20.565 0.117713
20.605 0.14433
20.645 0.108413
20.685 0.0877111
20.725 0.0618151
20.765 0.038833
20.805 0.0189772
20.845 -0.0108315
20.885 0.0178891
20.925 0.00349608
20.965 0.0270169
21.005 0.042503
21.045 0.0630589
21.085 0.0737402
21.125 0.0438761
21.165 0.0403484
21.205 0.0108973
21.245 -0.00828686
21.285 0.0201568
21.325 0.016008
21.365 0.0113134
21.405 0.0151744
21.445 0.0347075
21.485 0.0231368
21.525 -0.00153033
21.565 -0.00532001
21.605 -0.00737668
21.645 0.000185884
21.685 -0.00736077
21.725 -0.0144793
21.765 -0.0113281
21.805 0.00227809
21.845 0.00869448
21.885 -0.00907225
21.925 0.00893934
21.965 -0.00762414
22.005 0.0033522
22.045 0.00269383
22.085 -0.00867845
22.125 -0.00646156
22.165 -0.00449876
22.205 -0.0148509
22.245 0.00580934
22.285 0.000573473
22.325 -0.0209924
22.365 0.00433895
22.405 0.00217509
22.445 0.0108125
22.485 -0.00863887
22.525 0.0241498
22.565 0.0131963
22.605 0.0120165
22.645 0.0248069
22.685 0.0161748
22.725 0.0134298
22.765 0.0364855
22.805 0.0352725
22.845 0.0735164
22.885 0.104259
22.925 0.122151
22.965 0.129761
23.005 0.117363
23.045 0.096477
23.085 0.0294019
23.125 0.0369715
23.165 0.0284421
23.205 0.0252482
23.245 0.0180252
23.285 0.0287024
23.325 0.0116966
23.365 0.0146898
23.405 0.0218456
23.445 0.00204104
23.485 0.0139311
23.525 0.0130912
23.565 0.0198428
23.605 -0.000668232
23.645 0.0410095
23.685 0.0215592
23.725 0.0206425
23.765 0.0444077
23.805 0.0449791
23.845 0.0731149
23.885 0.0695875
23.925 0.0600468
23.965 0.038926
24.005 0.028752
24.045 0.00216327
24.085 0.00437165
24.125 -0.00894815
24.165 0.00252986
24.205 0.00917343
24.245 -0.00870335
24.285 -0.0050691
24.325 -0.0150065
24.365 0.0126824
24.405 0.00687571
24.445 -0.0126024
24.485 -0.00116902
24.525 -0.00226356
24.565 0.0243593
24.605 0.0172394
24.645 0.0418819
24.685 0.106052
24.725 0.158078
24.765 0.210683
24.805 0.194136
24.845 0.14696
24.885 0.0720456
24.925 0.0279501
24.965 0.00122234
25.005 -0.0080147
25.045 0.00148289
25.085 0.0135742
25.125 -0.00451426
25.165 0.0151875
25.205 -0.00283937
25.245 -0.00299924
25.285 -0.00142164
25.325 -0.00617833
25.365 -0.0106641
25.405 -0.0166542
25.445 -0.00420104
25.485 0.0288811
25.525 -0.00941002
25.565 0.020189
25.605 -0.00857728
25.645 -0.00099168
25.685 0.0224311
25.725 -0.0100645
25.765 0.0238683
25.805 0.00573054
25.845 0.0220043
25.885 0.0122291
25.925 0.0232588
25.965 0.0226023
26.005 -0.00385946
26.045 0.00160268
26.085 0.0184174
26.125 0.00388463
26.165 0.0110439
26.205 0.00833915
26.245 0.0221982
26.285 -0.0160827
26.325 -0.00120986
26.365 -0.006577
26.405 -0.0178871
26.445 -0.0143095
26.485 0.00150185
26.525 0.0244876
26.565 0.0637789
26.605 0.100112
26.645 0.170303
26.685 0.202746
26.725 0.261108
26.765 0.242738
26.805 0.215927
26.845 0.152414
26.885 0.101853
26.925 0.101426
26.965 0.1289
27.005 0.147221
27.045 0.158014
27.085 0.133708
27.125 0.113778
27.165 0.0749393
27.205 0.0453495
27.245 0.00497614
27.285 -0.00811826
27.325 -0.00377475
27.365 -0.00759222
27.405 0.0123242
27.445 0.0659976
27.485 0.147056
27.525 0.179611
27.565 0.207287
27.605 0.164961
27.645 0.123647
27.685 0.128941
27.725 0.134197
27.765 0.13841
27.805 0.133617
27.845 0.111033
27.885 0.0667851
27.925 0.054597
27.965 0.0385905
28.005 0.0231788
28.045 0.023556
28.085 0.058114
28.125 0.0510716
28.165 0.0557756
28.205 0.0421905
28.245 0.0635931
28.285 0.0624548
28.325 0.0525429
28.365 0.0174682
28.405 0.0212545
28.445 -0.00244706
28.485 -0.000576128
28.525 0.00830952
28.565 0.0450862
28.605 0.0559189
28.645 0.121862
28.685 0.192762
28.725 0.299864
28.765 0.40726
28.805 0.503311
28.845 0.417197
28.885 0.323436
28.925 0.181899
28.965 0.0995436
29.005 0.0563021
29.045 0.0451342
29.085 0.0238534
29.125 0.0114166
29.165 0.00625575
29.205 0.0264748
29.245 0.017481
29.285 0.0485498
29.325 0.0782832
29.365 0.126999
29.405 0.185934
29.445 0.264315
29.485 0.399706
29.525 0.558482
29.565 0.710586
29.605 0.704219
29.645 0.604795
29.685 0.411798
29.725 0.221782
29.765 0.138379
29.805 0.15016
29.845 0.184016
29.885 0.22707
29.925 0.219335
29.965 0.161903
30.005 0.128117
30.045 0.0914022
30.085 0.0718363
30.125 0.0487782
30.165 0.0972039
30.205 0.129342
30.245 0.158515
30.285 0.167444
30.325 0.186492
30.365 0.203713
30.405 0.195211
30.445 0.189634
30.485 0.169256
30.525 0.15547
30.565 0.14442
30.605 0.127285
30.645 0.12982
30.685 0.114741
30.725 0.0801613
30.765 0.047584
30.805 0.0346057
30.845 0.00902737
30.885 -0.00787198
30.925 -0.0129128
30.965 -0.0250995
31.005 -0.00355397
31.045 -0.0125359
31.085 -0.00534045
31.125 0.00185026
31.165 -0.00864018
31.205 -0.000783221
31.245 -0.00670459
31.285 0.00334972
31.325 0.0124257
31.365 0.0185175
31.405 0.0348965
31.445 0.0312424
31.485 0.0162203
31.525 0.0441784
31.565 0.0817405
31.605 0.155083
31.645 0.242457
31.685 0.346508
31.725 0.466744
31.765 0.628565
31.805 0.683441
31.845 0.600296
31.885 0.488433
31.925 0.339681
31.965 0.222207
32.005 0.153159
32.045 0.109544
32.085 0.0794902
32.125 0.0355097
32.165 0.0423238
32.205 0.0207983
32.245 0.0486203
32.285 0.0536422
32.325 0.0600787
32.365 0.0787318
32.405 0.101501
32.445 0.131971
32.485 0.147949
32.525 0.191923
32.565 0.251672
32.605 0.249999
32.645 0.253754
32.685 0.231555
32.725 0.236807
32.765 0.234851
32.805 0.245355
32.845 0.253504
32.885 0.226541
32.925 0.23075
32.965 0.154307
33.005 0.117471
33.045 0.0765824
33.085 0.0495549
33.125 0.0736634
33.165 0.0740963
33.205 0.0555673
33.245 0.0307964
33.285 0.00756523
33.325 0.00481301
33.365 -0.00186763
33.405 -0.0242235
33.445 -0.0130118
33.485 -0.0134695
33.525 -0.0114008
33.565 0.01387
33.605 -0.0122714
33.645 0.0147349
33.685 0.0295071
33.725 0.0516926
33.765 0.0635419
33.805 0.0780386
33.845 0.0917544
33.885 0.0836804
33.925 0.0509866
33.965 0.0321593
34.005 0.0202595
34.045 0.0191859
34.085 0.0212468
34.125 -0.00512662
34.165 0.0041472
34.205 0.0222486
34.245 0.0318424
34.285 0.0618894
34.325 0.0829546
34.365 0.0906715
34.405 0.0711089
34.445 0.0586431
34.485 0.067322
34.525 0.0782861
34.565 0.0666291
34.605 0.100913
34.645 0.0600625
34.685 0.0503181
34.725 0.0278429
34.765 -0.00538013
34.805 0.0296801
34.845 0.0625659
34.885 0.0765504
34.925 0.100742
34.965 0.114986
35.005 0.149203
35.045 0.137892
35.085 0.154743
35.125 0.158457
35.165 0.164732
35.205 0.17475
35.245 0.201218
35.285 0.204055
35.325 0.261634
35.365 0.334633
35.405 0.374783
35.445 0.396157
35.485 0.38024
35.525 0.349453
35.565 0.266993
35.605 0.17264
35.645 0.11287
35.685 0.0844249
35.725 0.0663804
35.765 0.0486547
35.805 0.0582783
35.845 0.0488677
35.885 0.06845
35.925 0.0616677
35.965 0.0811752
36.005 0.110833
36.045 0.0768927
36.085 0.0620028
36.125 0.0488856
36.165 0.0375677
36.205 0.0219702
36.245 -0.000108213
36.285 0.00741791
36.325 0.00651259
36.365 0.0152155
36.405 0.0169322
36.445 0.0203443
36.485 0.00856493
36.525 0.0142513
36.565 0.0264775
36.605 0.0668162
36.645 0.116139
36.685 0.198629
36.725 0.26493
36.765 0.387847
36.805 0.61153
36.845 0.74122
36.885 0.823798
36.925 0.682131
36.965 0.484751
37.005 0.32475
37.045 0.227813
37.085 0.151748
37.125 0.119378
37.165 0.0918385
37.205 0.0654535
37.245 0.0616281
37.285 0.0763282
37.325 0.0572098
37.365 0.0563596
37.405 0.0540603
37.445 0.0553676
37.485 0.0356049
37.525 0.0361545
37.565 0.0253133
37.605 0.0465934
37.645 0.0449736
37.685 0.0463348
37.725 0.0387287
37.765 0.0385962
37.805 0.0788217
37.845 0.0609974
37.885 0.0427566
37.925 0.022749
37.965 0.0327809
38.005 0.0208948
38.045 0.0268921
38.085 0.0217771
38.125 0.0310992
38.165 0.0146992
38.205 0.022811
38.245 0.0310723
38.285 0.00308236
38.325 0.0175149
38.365 0.00711983
38.405 -0.0052101
38.445 -0.0137494
38.485 -0.0212373
38.525 -0.017947
38.565 -0.00544547
38.605 -0.00684252
38.645 0.00801953
38.685 0.00119225
38.725 0.0125911
38.765 0.0397518
38.805 0.0775534
38.845 0.0985869
38.885 0.139917
38.925 0.180699
38.965 0.173622
39.005 0.173521
39.045 0.145374
39.085 0.0889832
39.125 0.0700314
39.165 0.032021
39.205 0.0154769
39.245 -0.00163237
39.285 0.00090251
39.325 -0.0172461
39.365 -0.019337
39.405 -0.00239438
39.445 0.000571986
39.485 0.0142631
39.525 0.00356806
39.565 0.00706559
39.605 0.0112163
39.645 0.014931
39.685 0.00816099
39.725 0.023885
39.765 0.0237259
39.805 0.0350624
39.845 0.00771784
39.885 0.0137631
39.925 -0.000852062
39.965 0.0122183
40.005 0.0148854
40.045 0.0294922
40.085 0.0244424
40.125 0.0400388
40.165 0.0424317
40.205 0.0452368
40.245 0.0367297
40.285 0.040769
40.325 0.0681603
40.365 0.0690797
40.405 0.0932073
40.445 0.0776839
40.485 0.0823334
40.525 0.100139
40.565 0.0836352
40.605 0.0771136
40.645 0.0685207
40.685 0.0354339
40.725 0.0162127
40.765 0.0144439
40.805 0.0204735
40.845 0.032346
40.885 0.0556567
40.925 0.083986
40.965 0.109974
41.005 0.107099
41.045 0.0927528
41.085 0.0774248
41.125 0.0737999
41.165 0.054149
41.205 0.0619257
41.245 0.0588518
41.285 0.0545367
41.325 0.035388
41.365 0.0396598
41.405 0.0172734
41.445 0.0160478
41.485 0.00177365
41.525 -0.0140684
41.565 -0.0133952
41.605 -0.00471136
41.645 -0.0114812
41.685 0.00334141
41.725 0.00914558
41.765 0.00993586
41.805 0.0129456
41.845 0.0119018
41.885 0.00826377
41.925 0.0155549
41.965 0.0124967
42.005 0.0131791
42.045 0.00358887
42.085 0.00419148
42.125 -0.00239702
42.165 -0.00450554
42.205 0.00497249
42.245 -0.0109436
42.285 -0.0172315
42.325 -0.0183986
42.365 -0.00223698
42.405 -0.000974531
42.445 0.0213163
42.485 0.0310356
42.525 0.0480422
42.565 0.055697
42.605 0.0780509
42.645 0.0966387
42.685 0.121592
42.725 0.139757
42.765 0.136906
42.805 0.121011
42.845 0.0950089
42.885 0.0750373
42.925 0.0630001
42.965 0.0472985
43.005 0.0307456
43.045 0.0372771
43.085 0.0434044
43.125 0.0241465
43.165 0.0142151
43.205 0.0269808
43.245 0.0534234
43.285 0.0664132
43.325 0.0961439
43.365 0.136907
43.405 0.180172
43.445 0.176649
43.485 0.166701
43.525 0.145412
43.565 0.12115
43.605 0.0669407
43.645 0.0407972
43.685 0.0168286
43.725 0.00691894
43.765 -0.00742908
43.805 -0.00966468
43.845 0.013511
43.885 0.0252666
43.925 0.0274101
43.965 0.0391582
44.005 0.0418892
44.045 0.0307182
44.085 0.00852058
44.125 -0.000337527
44.165 0.000429293
44.205 -0.0164749
44.245 -0.0172542
44.285 -0.00769253
44.325 0.00364706
44.365 -0.00538165
44.405 -0.0045742
44.445 0.00906917
44.485 -0.00718077
44.525 -0.0190685
44.565 -0.0211419
44.605 -0.00483497
44.645 -0.0136774
44.685 0.00348108
44.725 -0.00430701
44.765 -0.00150848
44.805 0.000328023
44.845 -0.00872006
44.885 0.00111405
44.925 0.00202987
44.965 -0.00723224
45.005 0.000860525
45.045 -0.0126119
45.085 0.00272676
45.125 0.000858744
45.165 0.0143339
45.205 0.03056
45.245 0.036832
45.285 0.0590291
45.325 0.0718948
45.365 0.109256
45.405 0.118029
45.445 0.13349
45.485 0.164296
45.525 0.179182
45.565 0.233982
45.605 0.246966
45.645 0.264949
45.685 0.229077
45.725 0.206465
45.765 0.188418
45.805 0.152467
45.845 0.135228
45.885 0.115161
45.925 0.0948711
45.965 0.0660811
46.005 0.0467879
46.045 0.037242
46.085 0.0440413
46.125 0.0376955
46.165 0.0374418
46.205 0.0407985
46.245 0.0392438
46.285 0.058881
46.325 0.0792857
46.365 0.0951969
46.405 0.110291
46.445 0.123352
46.485 0.126367
46.525 0.137133
46.565 0.0971642
46.605 0.0740193
46.645 0.0821187
46.685 0.069749
46.725 0.0577721
46.765 0.0320111
46.805 0.0555749
46.845 0.0136018
46.885 0.0279879
46.925 0.0518219
46.965 0.0476539
47.005 0.0422034
47.045 0.0487564
47.085 0.0645492
47.125 0.0556675
47.165 0.0711476
47.205 0.0738789
47.245 0.0813696
47.285 0.0796395
47.325 0.0579143
47.365 0.0233746
47.405 0.0332217
47.445 -0.00325702
47.485 -0.00653123
47.525 -0.00382827
47.565 -0.0170702
47.605 -0.015163
47.645 -0.012159
47.685 -0.00870126
47.725 -0.0156672
47.765 0.015031
47.805 0.0315636
47.845 0.0537132
47.885 0.157471
47.925 0.284734
47.965 0.380884
48.005 0.473233
48.045 0.530811
48.085 0.516457
48.125 0.456092
48.165 0.412632
48.205 0.392271
48.245 0.337599
48.285 0.249215
48.325 0.197156
48.365 0.163507
48.405 0.134
48.445 0.0801006
48.485 0.0603916
48.525 0.0557821
48.565 0.0501818
48.605 0.0304263
48.645 0.0400942
48.685 0.0445818
48.725 0.0311742
48.765 0.039812
48.805 0.0266155
48.845 0.0211253
48.885 0.0215274
48.925 0.0275174
48.965 0.0473262
49.005 0.0497838
49.045 0.0441985
49.085 0.0342219
49.125 0.0376495
49.165 0.0252606
49.205 0.035194
49.245 0.0154999
49.285 0.0145034
49.325 0.0405091
49.365 0.0455168
49.405 0.0508457
49.445 0.0489452
49.485 0.0404284
49.525 0.035596
49.565 0.0420515
49.605 0.0424375
49.645 0.0325737
49.685 0.0461847
49.725 0.0399899
49.765 0.0449535
49.805 0.0528582
49.845 0.0353245
49.885 0.034503
49.925 0.0341581
49.965 0.0335573
50.005 -0.00225105
50.045 -0.00403643
50.085 0.00333203
50.125 -0.0113733
50.165 -0.00674467
50.205 -0.00376421
50.245 0.0065328
50.285 -0.0051756
50.325 0.000361264
50.365 0.012611
50.405 0.0144763
50.445 0.0212965
50.485 0.0204315
50.525 0.0273472
50.565 0.0165637
50.605 0.0316019
50.645 0.0155186
50.685 0.0291289
50.725 0.034315
50.765 0.0660604
50.805 0.0662103
50.845 0.0865488
50.885 0.117787
50.925 0.11946
50.965 0.131909
51.005 0.104289
51.045 0.117694
51.085 0.124617
51.125 0.0588816
51.165 0.0591109
51.205 0.0377982
51.245 0.0438093
51.285 0.0240181
51.325 0.0380757
51.365 0.0414842
51.405 0.0549174
51.445 0.0765333
51.485 0.0811392
51.525 0.0862137
51.565 0.0830035
51.605 0.0759937
51.645 0.0615227
51.685 0.0586693
51.725 0.0448613
51.765 0.0430982
51.805 0.0328933
51.845 0.0263997
51.885 0.0357194
51.925 0.0283577
51.965 0.0194844
52.005 0.0224511
52.045 0.0416367
52.085 0.0353263
52.125 0.0571707
52.165 0.0587701
52.205 0.0579622
52.245 0.0549702
52.285 0.035617
52.325 0.0249121
52.365 0.00981514
52.405 0.0139197
52.445 0.00607239
52.485 -0.00459362
52.525 -0.00535674
52.565 0.0097249
52.605 -0.00321931
52.645 0.0160315
52.685 0.0188898
52.725 0.0573005
52.765 0.0542151
52.805 0.0535252
52.845 0.0365447
52.885 0.0411461
52.925 0.0132598
52.965 0.0430625
53.005 0.0450377
53.045 0.0660612
53.085 0.0781099
53.125 0.0698851
53.165 0.0609501
53.205 0.0380889
53.245 0.0676568
53.285 0.0316637
53.325 0.0276806
53.365 0.0164439
53.405 0.00997885
53.445 0.0202313
53.485 0.0393378
53.525 0.0320027
53.565 0.0354421
53.605 0.0201436
53.645 0.0465527
53.685 0.0427867
53.725 0.0339927
53.765 0.0300691
53.805 0.0551274
53.845 0.0416708
53.885 0.0215867
53.925 0.0326624
53.965 0.026272
54.005 0.0204683
54.045 0.0363007
54.085 0.0544803
54.125 0.0718478
54.165 0.0812749
54.205 0.0778591
54.245 0.0448632
54.285 0.0186041
54.325 0.0057978
54.365 0.00265352
54.405 0.00295012
54.445 0.000898693
54.485 0.00701885
54.525 0.0122833
54.565 0.031144
54.605 0.0272849
54.645 0.032944
54.685 0.0439752
54.725 0.0374461
54.765 0.0291306
54.805 0.0447706
54.845 0.0581533
54.885 0.0486455
54.925 0.0630253
54.965 0.0421966
55.005 0.0282817
55.045 0.0303034
55.085 0.0206225
55.125 0.0290567
55.165 0.0195147
55.205 0.0220608
55.245 0.0325749
55.285 0.0262126
55.325 0.00150834
55.365 0.000882863
55.405 -0.000772461
55.445 0.00307642
55.485 0.0173665
55.525 0.0131046
55.565 -0.00540158
55.605 -0.00531961
55.645 -0.0175107
55.685 -0.00944421
55.725 -0.00370894
55.765 -0.0113509
55.805 -0.0124891
55.845 -0.0149307
55.885 -0.00524099
55.925 -0.0117761
55.965 0.00713316
56.005 -0.00372885
56.045 -0.00773881
56.085 0.00576922
56.125 0.0139768
56.165 0.0200231
56.205 0.0185625
56.245 0.0182979
56.285 0.0226103
56.325 0.0204051
56.365 -0.00250884
56.405 -0.00241861
56.445 7.20604e-05
56.485 0.00464861
56.525 -0.00978611
56.565 -0.00545713
56.605 0.0272801
56.645 0.0373168
56.685 0.0602729
56.725 0.0909212
56.765 0.110679
56.805 0.139701
56.845 0.11973
56.885 0.136649
56.925 0.119047
56.965 0.140213
57.005 0.125216
57.045 0.136645
57.085 0.143875
57.125 0.174578
57.165 0.16473
57.205 0.158843
57.245 0.131161
57.285 0.103639
57.325 0.0720234
57.365 0.0462023
57.405 0.044363
57.445 0.0344064
57.485 0.0232871
57.525 0.0234511
57.565 0.0291025
57.605 0.0323204
57.645 0.0251851
57.685 0.0372507
57.725 0.0474175
57.765 0.0401803
57.805 0.030753
57.845 0.0187694
57.885 0.0166608
57.925 -0.0017622
57.965 0.0179137
58.005 0.0123328
58.045 0.00393738
58.085 -0.0109076
58.125 -0.00802925
58.165 0.0146334
58.205 -0.0018547
58.245 -0.00846739
58.285 -0.00109317
58.325 0.0286499
58.365 0.0243031
58.405 0.0228392
58.445 0.0281735
58.485 0.035884
58.525 0.0334439
58.565 0.0435965
58.605 0.0660428
58.645 0.0695746
58.685 0.0932495
58.725 0.11141
58.765 0.15518
58.805 0.133633
58.845 0.137301
58.885 0.144236
58.925 0.126673
58.965 0.134748
59.005 0.109754
59.045 0.0785495
59.085 0.08797
59.125 0.0572486
59.165 0.0531364
59.205 0.0488077
59.245 0.0381746
59.285 0.0248641
59.325 0.0198136
59.365 0.0166221
59.405 0.00833903
59.445 0.00512339
59.485 0.00990914
59.525 0.0103904
59.565 0.00444863
59.605 0.00784814
59.645 -0.00572276
59.685 -0.00562163
59.725 -0.0105303
59.765 0.00238864
59.805 -0.0164407
59.845 -0.0103163
59.885 -0.00411769
59.925 -0.000734442
59.965 0.0174376
60.005 0.0174751
60.045 0.0244966
60.085 0.0160613
60.125 0.0335329
60.165 0.0264737
60.205 0.0301197
60.245 0.0136132
60.285 0.00236504
60.325 0.00306273
60.365 0.0104997
60.405 0.0193105
60.445 0.0131926
60.485 -0.00230618
60.525 0.000247907
60.565 0.00163526
60.605 0.00384112
60.645 0.00916334
60.685 0.013143
60.725 0.00525544
60.765 0.0261825
60.805 0.00997898
60.845 0.00543029
60.885 0.024146
60.925 0.00943176
60.965 0.00970873
61.005 0.0122145
61.045 0.0153628
61.085 0.0130111
61.125 0.0167878
61.165 0.0135919
61.205 0.00933747
61.245 0.0128539
61.285 0.00537491
61.325 0.00233245
61.365 0.00314062
61.405 0.0198982
61.445 -0.00414069
61.485 0.0195361
61.525 0.0143234
61.565 -0.00577839
61.605 0.00413781
61.645 0.0071817
61.685 0.00454401
61.725 0.00766411
61.765 0.00645382
61.805 0.0131356
61.845 0.0107158
61.885 0.00279244
61.925 0.0154015
61.965 0.011949
62.005 0.0161455
62.045 0.0143209
62.085 0.00522701
62.125 0.00231499
62.165 0.00846447
62.205 -0.0108984
62.245 0.0137321
62.285 0.00762732
62.325 0.00644584
62.365 -0.00988514
62.405 -0.00233685
62.445 0.0212356
62.485 0.018097
62.525 0.0340406
62.565 0.0259461
62.605 0.0450804
62.645 0.0319868
62.685 0.0190375
62.725 0.0141018
62.765 0.0246217
62.805 0.0130655
62.845 0.0257435
62.885 0.0159222
62.925 0.00351832
62.965 0.0117593
63.005 0.00926828
63.045 0.00575588
63.085 0.00693488
63.125 0.0044666
63.165 0.0114565
63.205 0.0122916
63.245 0.00603629
63.285 -0.00396013
63.325 0.00984527
63.365 0.008481
63.405 0.00308765
63.445 0.00343179
63.485 0.000804133
63.525 -0.00335437
63.565 0.00887218
63.605 0.0145739
63.645 0.0173913
63.685 0.015409
63.725 0.00477149
63.765 0.0114395
63.805 0.0144707
63.845 0.00339582
63.885 -0.00587066
63.925 0.0181705
63.965 -0.000679078
63.995 -0.0166257