File: data/xrd/xy/2019-09-30T17_18_05.146721+00_00_LBL_F7.xy
'Id: "" Comment: "Integrate frame diethylpropane13dia_02_001.gfrmwith cursor Wedge Cursor #3" Operator: "UC Berkeley" Anode: "Co" Scantype: "TwoTheta" TimePerStep: "600"
4.03 -0.0231597
4.07 -0.0211186
4.11 0.0764333
4.15 0.0945369
4.19 0.161499
4.23 0.111901
4.27 0.0887381
4.31 0.0470906
4.35 0.0807592
4.39 0.103274
4.43 0.0383771
4.47 0.108145
4.51 0.0815698
4.55 0.0544938
4.59 0.036306
4.63 0.0666577
4.67 0.0433811
4.71 0.0620272
4.75 0.0907425
4.79 0.0360002
4.83 0.0757507
4.87 0.0543008
4.91 0.0437842
4.95 0.0659035
4.99 0.0451675
5.03 0.0116527
5.07 0.0717467
5.11 0.125875
5.15 0.0610922
5.19 0.0835652
5.23 0.101692
5.27 0.131898
5.31 0.0802795
5.35 0.0529009
5.39 0.0808937
5.43 0.0422636
5.47 0.113388
5.51 0.0379432
5.55 0.0881678
5.59 0.0401576
5.63 0.104192
5.67 0.0360822
5.71 0.0431029
5.75 0.0460084
5.79 0.0819591
5.83 0.0330132
5.87 0.0693236
5.91 0.0952707
5.95 0.0602362
5.99 0.125024
6.03 0.0397287
6.07 0.047087
6.11 0.0727501
6.15 0.0208762
6.19 0.0739338
6.23 0.0718055
6.27 0.0981805
6.31 0.0330627
6.35 0.0982104
6.39 0.0325117
6.43 0.0675431
6.47 0.0759362
6.51 0.0730648
6.55 0.07103
6.59 0.0371926
6.63 0.0128501
6.67 0.0515196
6.71 0.0751163
6.75 0.0612778
6.79 0.0865744
6.83 0.0599109
6.87 0.0771151
6.91 0.0818954
6.95 0.0498604
6.99 0.0872393
7.03 0.0820894
7.07 0.0653751
7.11 0.0152875
7.15 0.0660734
7.19 0.0281805
7.23 0.0367289
7.27 0.0168654
7.31 0.0191048
7.35 0.0408134
7.39 -0.00140149
7.43 0.101826
7.47 0.0395464
7.51 0.0503486
7.55 -0.0101666
7.59 0.025996
7.63 0.0844781
7.67 0.057688
7.71 0.0434368
7.75 0.046577
7.79 0.0254425
7.83 -0.00063064
7.87 0.0554279
7.91 0.0266177
7.95 0.015438
7.99 0.0781752
8.03 0.0532889
8.07 0.0454325
8.11 0.0443305
8.15 0.0895866
8.19 0.0748407
8.23 0.00395931
8.27 0.00113862
8.31 0.0314307
8.35 0.0666483
8.39 0.0596264
8.43 0.0707642
8.47 0.0131209
8.51 0.00545046
8.55 0.0527264
8.59 0.0618206
8.63 0.000135866
8.67 0.0595485
8.71 0.0316888
8.75 0.0395844
8.79 0.0310038
8.83 0.0283624
8.87 0.0653342
8.91 -0.00832992
8.95 0.0641619
8.99 0.0467449
9.03 0.000748823
9.07 -0.0160483
9.11 0.0669968
9.15 0.00467798
9.19 0.0428963
9.23 0.00538029
9.27 0.0504585
9.31 0.0115024
9.35 0.000968478
9.39 0.000632774
9.43 0.0668093
9.47 0.0388316
9.51 0.008446
9.55 0.0427621
9.59 0.0196582
9.63 0.0677736
9.67 0.0553875
9.71 0.102717
9.75 0.141261
9.79 0.119964
9.83 0.139838
9.87 0.0715005
9.91 0.0404718
9.95 0.0192536
9.99 0.0184992
10.03 0.0860232
10.07 0.0041774
10.11 0.0243487
10.15 0.0378697
10.19 -0.0136549
10.23 0.0330204
10.27 0.0380607
10.31 0.0979893
10.35 0.113409
10.39 0.146628
10.43 0.173627
10.47 0.167117
10.51 0.169328
10.55 0.118383
10.59 0.0944168
10.63 0.0760218
10.67 0.00402098
10.71 0.0314796
10.75 0.0463682
10.79 0.0096893
10.83 0.00205012
10.87 0.0175891
10.91 -0.0142836
10.95 0.0310506
10.99 -0.0105191
11.03 0.0164516
11.07 0.0272202
11.11 0.0406849
11.15 0.0219008
11.19 0.0055413
11.23 0.0173503
11.27 -0.0186975
11.31 0.0422359
11.35 0.0410934
11.39 0.0448588
11.43 0.0503525
11.47 0.0466734
11.51 0.0147329
11.55 0.0544533
11.59 0.0593922
11.63 0.0555662
11.67 0.0398445
11.71 0.0446011
11.75 0.0587872
11.79 0.10356
11.83 0.113631
11.87 0.173796
11.91 0.20018
11.95 0.192193
11.99 0.168026
12.03 0.10858
12.07 0.0632515
12.11 0.0498838
12.15 0.0395636
12.19 0.0134639
12.23 0.0294421
12.27 0.0286611
12.31 0.0379599
12.35 0.0547051
12.39 0.0694609
12.43 0.0434072
12.47 0.00305567
12.51 0.0556255
12.55 0.0394315
12.59 0.0296616
12.63 0.0756434
12.67 0.0160708
12.71 0.0748307
12.75 0.0408254
12.79 0.0613524
12.83 0.0409474
12.87 0.0826042
12.91 0.0649574
12.95 0.0484768
12.99 0.0492664
13.03 0.0389375
13.07 0.129234
13.11 0.139463
13.15 0.253151
13.19 0.38327
13.23 0.584744
13.27 0.575402
13.31 0.397621
13.35 0.216239
13.39 0.154501
13.43 0.048495
13.47 0.0559591
13.51 0.0447529
13.55 -0.0193663
13.59 0.0158132
13.63 0.0261346
13.67 0.0434269
13.71 0.0283658
13.75 0.0223016
13.79 0.0344133
13.83 0.0422237
13.87 0.0735943
13.91 0.0815445
13.95 0.0902865
13.99 0.153466
14.03 0.146444
14.07 0.137018
14.11 0.134075
14.15 0.0812036
14.19 0.0577355
14.23 0.115891
14.27 0.0478632
14.31 0.0361481
14.35 0.000690088
14.39 0.010586
14.43 -0.00106749
14.47 0.0434867
14.51 0.0226584
14.55 0.0700889
14.59 0.00670703
14.63 0.0252213
14.67 0.0378793
14.71 0.0229007
14.75 0.00580575
14.79 0.0151844
14.83 0.0252703
14.87 0.0135453
14.91 0.0284063
14.95 0.015818
14.99 0.015174
15.03 0.00102284
15.07 0.0131726
15.11 0.0162275
15.15 0.0218835
15.19 0.0257517
15.23 0.0208556
15.27 -0.0168443
15.31 0.0323212
15.35 0.0328398
15.39 0.0424866
15.43 -0.0234554
15.47 -0.00158673
15.51 0.00259238
15.55 -0.00193544
15.59 0.0426136
15.63 0.0190418
15.67 -0.0100949
15.71 0.00368695
15.75 0.0107127
15.79 0.000424449
15.83 -0.002856
15.87 -0.00465804
15.91 0.0296908
15.95 0.021141
15.99 0.037821
16.03 0.0432279
16.07 0.0321181
16.11 0.00392654
16.15 0.0495951
16.19 0.0251754
16.23 0.0211332
16.27 0.018419
16.31 0.0471882
16.35 0.0232729
16.39 0.0586886
16.43 0.0736815
16.47 0.0534767
16.51 0.110802
16.55 0.0731232
16.59 0.113049
16.63 0.149268
16.67 0.192544
16.71 0.271768
16.75 0.382276
16.79 0.379813
16.83 0.251286
16.87 0.152895
16.91 0.0508199
16.95 0.0775941
16.99 0.0552243
17.03 0.0741338
17.07 0.0308249
17.11 0.0656303
17.15 0.0275603
17.19 0.0221674
17.23 0.0179939
17.27 -0.0120782
17.31 0.0097156
17.35 0.027337
17.39 -0.0111742
17.43 0.0454857
17.47 0.033763
17.51 0.000742575
17.55 0.0289939
17.59 0.0327693
17.63 -0.00555008
17.67 0.0406329
17.71 0.0329735
17.75 0.0556378
17.79 0.0639176
17.83 0.00350453
17.87 0.0224176
17.91 0.0267686
17.95 0.0306624
17.99 0.0173826
18.03 0.0633055
18.07 0.0389552
18.11 0.0681423
18.15 0.0419906
18.19 0.011822
18.23 0.0611788
18.27 0.065033
18.31 0.0998381
18.35 0.117351
18.39 0.071972
18.43 0.0533759
18.47 0.0581641
18.51 0.058868
18.55 0.0293616
18.59 0.0318758
18.63 0.0156833
18.67 0.0209038
18.71 0.00874287
18.75 0.0527676
18.79 0.0732175
18.83 0.0376928
18.87 0.0720536
18.91 0.0936419
18.95 0.041039
18.99 0.0703823
19.03 0.0332964
19.07 0.068378
19.11 0.139397
19.15 0.257911
19.19 0.362471
19.23 0.322266
19.27 0.238904
19.31 0.0978945
19.35 0.119224
19.39 0.0460037
19.43 0.0753588
19.47 0.0871835
19.51 0.15047
19.55 0.199565
19.59 0.224544
19.63 0.279366
19.67 0.318242
19.71 0.186289
19.75 0.111467
19.79 0.106172
19.83 0.0630468
19.87 0.0956899
19.91 0.0474893
19.95 0.0502041
19.99 0.0753912
20.03 0.0562488
20.07 0.0477632
20.11 0.0418415
20.15 0.0617919
20.19 0.0493573
20.23 0.033811
20.27 0.0931252
20.31 0.0453085
20.35 0.0694097
20.39 0.053282
20.43 0.0654505
20.47 0.131769
20.51 0.252112
20.55 0.28975
20.59 0.320954
20.63 0.285706
20.67 0.243817
20.71 0.145228
20.75 0.111706
20.79 0.0708176
20.83 0.0823483
20.87 0.0964261
20.91 0.0676033
20.95 0.161827
20.99 0.209927
21.03 0.194518
21.07 0.129755
21.11 0.0737291
21.15 0.00547045
21.19 0.0461202
21.23 0.0475822
21.27 0.0331933
21.31 0.0419848
21.35 0.0305584
21.39 0.0284703
21.43 0.0298169
21.47 0.0256738
21.51 0.0310193
21.55 0.00049459
21.59 0.0198205
21.63 0.0574468
21.67 0.00225406
21.71 0.0297388
21.75 0.029296
21.79 -0.00324922
21.83 -0.00587406
21.87 -0.0102671
21.91 0.0370581
21.95 0.024839
21.99 -0.0138602
22.03 0.029349
22.07 -0.00451612
22.11 0.0168318
22.15 0.00389777
22.19 -0.0199063
22.23 -0.00540323
22.27 -0.0173967
22.31 0.00386436
22.35 -0.00863845
22.39 0.0460387
22.43 -0.0140814
22.47 0.0229595
22.51 0.0166574
22.55 0.0219781
22.59 0.0439485
22.63 0.0548954
22.67 0.0513073
22.71 0.0811471
22.75 0.123555
22.79 0.127715
22.83 0.0932023
22.87 0.0924927
22.91 0.0763789
22.95 0.10166
22.99 0.0604907
23.03 0.0600699
23.07 0.0681506
23.11 0.0450641
23.15 0.0236559
23.19 0.0744541
23.23 0.0490556
23.27 0.040736
23.31 -0.00481635
23.35 0.0114878
23.39 0.0131371
23.43 0.0404422
23.47 -0.00649738
23.51 0.0211127
23.55 0.0240774
23.59 0.00494087
23.63 0.011046
23.67 0.0248687
23.71 0.0198707
23.75 0.0494972
23.79 0.119062
23.83 0.156019
23.87 0.149824
23.91 0.144683
23.95 0.115164
23.99 0.0745662
24.03 0.0518486
24.07 0.0420321
24.11 0.0137999
24.15 0.000478686
24.19 0.0272986
24.23 -0.0112245
24.27 0.0231561
24.31 0.00863034
24.35 0.00441372
24.39 0.0343016
24.43 0.0205386
24.47 0.000307195
24.51 -0.0163892
24.55 0.0166085
24.59 0.0192935
24.63 0.0162084
24.67 0.0386348
24.71 0.0463473
24.75 0.0769293
24.79 0.0696771
24.83 0.0509094
24.87 0.0205031
24.91 0.016292
24.95 0.00496974
24.99 0.010917
25.03 -0.0306856
25.07 -0.0165437
25.11 -0.0111766
25.15 0.0137082
25.19 -0.00369596
25.23 -0.00406404
25.27 -0.0026166
25.31 -0.0143397
25.35 -0.0286399
25.39 -0.0069451
25.43 -0.0182472
25.47 -0.00371449
25.51 0.00282783
25.55 -0.00189173
25.59 -0.0015216
25.63 -0.00943162
25.67 0.023632
25.71 0.0124322
25.75 0.0238444
25.79 0.0473974
25.83 0.0693004
25.87 0.0776274
25.91 0.0432242
25.95 0.0296482
25.99 0.0126838
26.03 -0.00845341
26.07 0.027346
26.11 0.0180121
26.15 0.0227199
26.19 0.00247078
26.23 0.0210455
26.27 0.00210794
26.31 0.0204553
26.35 -0.0226407
26.39 -0.0221292
26.43 -0.0176203
26.47 -0.00509705
26.51 0.00174798
26.55 0.03014
26.59 0.0602924
26.63 0.128148
26.67 0.178832
26.71 0.238159
26.75 0.235687
26.79 0.202517
26.83 0.158364
26.87 0.121547
26.91 0.142228
26.95 0.197506
26.99 0.28043
27.03 0.311455
27.07 0.295787
27.11 0.225879
27.15 0.130913
27.19 0.0752052
27.23 0.0263128
27.27 -0.00422034
27.31 -0.017391
27.35 -0.00898938
27.39 -0.0234791
27.43 -0.010834
27.47 0.0519188
27.51 0.0863487
27.55 0.149947
27.59 0.221208
27.63 0.215856
27.67 0.249075
27.71 0.318943
27.75 0.355814
27.79 0.307759
27.83 0.257413
27.87 0.149534
27.91 0.0652039
27.95 0.0209966
27.99 0.00449668
28.03 0.0332452
28.07 -6.03206e-05
28.11 0.00640885
28.15 0.0239212
28.19 0.0186246
28.23 0.0562341
28.27 0.0346916
28.31 0.0341806
28.35 0.0411087
28.39 0.0212035
28.43 -0.0133438
28.47 -0.0143843
28.51 0.0338626
28.55 0.0614759
28.59 0.10818
28.63 0.09622
28.67 0.141678
28.71 0.172667
28.75 0.225397
28.79 0.249059
28.83 0.258594
28.87 0.228479
28.91 0.172999
28.95 0.125461
28.99 0.0774841
29.03 0.0340618
29.07 0.0042488
29.11 -0.0104201
29.15 -0.00032197
29.19 0.0215438
29.23 0.0493717
29.27 0.102775
29.31 0.18854
29.35 0.286645
29.39 0.375599
29.43 0.386915
29.47 0.390035
29.51 0.465271
29.55 0.569531
29.59 0.726584
29.63 0.757949
29.67 0.632412
29.71 0.374964
29.75 0.238652
29.79 0.168807
29.83 0.170571
29.87 0.17618
29.91 0.196842
29.95 0.165511
29.99 0.155639
30.03 0.145466
30.07 0.0820696
30.11 0.0770737
30.15 0.103018
30.19 0.118045
30.23 0.165419
30.27 0.194442
30.31 0.278299
30.35 0.321145
30.39 0.266488
30.43 0.25447
30.47 0.286184
30.51 0.319493
30.55 0.356724
30.59 0.375139
30.63 0.334945
30.67 0.267626
30.71 0.198425
30.75 0.170767
30.79 0.0965341
30.83 0.0562046
30.87 0.00268637
30.91 -0.0129777
30.95 -0.0123817
30.99 -0.0139972
31.03 -0.0162672
31.07 -0.00278464
31.11 -0.00744034
31.15 -0.00328046
31.19 -0.0036991
31.23 -0.00569374
31.27 0.0570333
31.31 0.0663073
31.35 0.0610494
31.39 0.0487958
31.43 0.0576988
31.47 0.0826174
31.51 0.10718
31.55 0.205531
31.59 0.320219
31.63 0.469808
31.67 0.587233
31.71 0.812156
31.75 0.861745
31.79 0.814496
31.83 0.724266
31.87 0.529417
31.91 0.366801
31.95 0.233817
31.99 0.180648
32.03 0.118991
32.07 0.103355
32.11 0.0966286
32.15 0.0756623
32.19 0.0797004
32.23 0.0742246
32.27 0.081868
32.31 0.0979588
32.35 0.113638
32.39 0.139152
32.43 0.191145
32.47 0.233397
32.51 0.288303
32.55 0.287749
32.59 0.328977
32.63 0.333741
32.67 0.401854
32.71 0.53865
32.75 0.778839
32.79 0.999677
32.83 1.18928
32.87 1.22185
32.91 1.13711
32.95 0.873687
32.99 0.61663
33.03 0.32334
33.07 0.189694
33.11 0.166469
33.15 0.157218
33.19 0.114179
33.23 0.0886812
33.27 0.0459751
33.31 0.0400373
33.35 -0.0204438
33.39 -0.0177592
33.43 -0.000996604
33.47 -0.0219703
33.51 -0.0240199
33.55 -0.0146763
33.59 0.00826802
33.63 0.0123187
33.67 0.0443941
33.71 0.0457347
33.75 0.11268
33.79 0.186033
33.83 0.238151
33.87 0.241309
33.91 0.257321
33.95 0.181207
33.99 0.105444
34.03 0.0622164
34.07 0.0326307
34.11 0.0208128
34.15 0.0268872
34.19 0.0195256
34.23 0.0343724
34.27 0.051341
34.31 0.0572807
34.35 0.0622549
34.39 0.0707301
34.43 0.0926437
34.47 0.105672
34.51 0.0744993
34.55 0.109071
34.59 0.0421216
34.63 0.0141157
34.67 0.00102354
34.71 -0.00576455
34.75 -0.000768028
34.79 0.0328343
34.83 0.0528072
34.87 0.067785
34.91 0.101405
34.95 0.107516
34.99 0.118109
35.03 0.126829
35.07 0.149458
35.11 0.212965
35.15 0.27885
35.19 0.3099
35.23 0.364124
35.27 0.423548
35.31 0.406748
35.35 0.404358
35.39 0.445732
35.43 0.499678
35.47 0.459384
35.51 0.391518
35.55 0.299636
35.59 0.194828
35.63 0.0963095
35.67 0.0480261
35.71 0.0663773
35.75 0.0519693
35.79 0.101306
35.83 0.106595
35.87 0.122023
35.91 0.123854
35.95 0.111332
35.99 0.137326
36.03 0.120739
36.07 0.105847
36.11 0.102772
36.15 0.0875071
36.19 0.0645684
36.23 0.0514955
36.27 0.0645303
36.31 0.0504442
36.35 0.0242631
36.39 0.0120971
36.43 0.00589818
36.47 0.0133023
36.51 0.0341385
36.55 0.0509767
36.59 0.105623
36.63 0.13287
36.67 0.195503
36.71 0.315971
36.75 0.487429
36.79 0.701275
36.83 0.836039
36.87 0.890087
36.91 0.905575
36.95 0.770642
36.99 0.622123
37.03 0.51494
37.07 0.437472
37.11 0.369746
37.15 0.349069
37.19 0.2575
37.23 0.224371
37.27 0.199371
37.31 0.189173
37.35 0.138096
37.39 0.121134
37.43 0.095503
37.47 0.0778575
37.51 0.0451629
37.55 0.0446695
37.59 0.0374335
37.63 0.061068
37.67 0.086872
37.71 0.100288
37.75 0.12179
37.79 0.0747227
37.83 0.06598
37.87 0.0381124
37.91 -0.00263777
37.95 0.000524471
37.99 -0.0235501
38.03 0.00906066
38.07 0.0222659
38.11 0.0512373
38.15 0.052935
38.19 0.0755579
38.23 0.106512
38.27 0.1218
38.31 0.102947
38.35 0.0855453
38.39 0.0908704
38.43 0.0720244
38.47 0.049475
38.51 0.00950993
38.55 0.00073578
38.59 0.00408975
38.63 0.0204839
38.67 0.0811597
38.71 0.0835422
38.75 0.142194
38.79 0.171606
38.83 0.228863
38.87 0.325534
38.91 0.391464
38.95 0.483656
38.99 0.512897
39.03 0.449757
39.07 0.388889
39.11 0.291668
39.15 0.21152
39.19 0.0975569
39.23 0.0725895
39.27 0.00616547
39.31 -0.0014819
39.35 0.00350054
39.39 0.00820756
39.43 0.0151438
39.47 -0.00782158
39.51 0.0199167
39.55 0.00345762
39.59 -0.00516406
39.63 0.00493316
39.67 -0.00570769
39.71 0.00599119
39.75 0.00959088
39.79 0.02806
39.83 0.0179949
39.87 0.0239798
39.91 -0.000494375
39.95 0.0111912
39.99 0.0275382
40.03 0.030764
40.07 0.0724835
40.11 0.0896263
40.15 0.116653
40.19 0.114409
40.23 0.081564
40.27 0.0536833
40.31 0.0447213
40.35 0.00551374
40.39 0.0253037
40.43 0.0036015
40.47 0.0291796
40.51 0.0278319
40.55 0.017658
40.59 0.00576487
40.63 0.0109793
40.67 0.0128491
40.71 0.0155992
40.75 0.0391368
40.79 0.0395336
40.83 0.0289618
40.87 0.0229827
40.91 0.0174521
40.95 0.0238571
40.99 0.0482935
41.03 0.0738121
41.07 0.0694132
41.11 0.07261
41.15 0.0841874
41.19 0.0992045
41.23 0.0990189
41.27 0.0714091
41.31 0.0812229
41.35 0.0352352
41.39 0.0201157
41.43 0.00719958
41.47 -0.0229373
41.51 -0.00960409
41.55 -0.0125752
41.59 -0.0106718
41.63 -0.018061
41.67 0.000260307
41.71 -0.0164981
41.75 -0.00103624
41.79 0.0146027
41.83 0.032367
41.87 0.0275044
41.91 0.07125
41.95 0.0731669
41.99 0.0694591
42.03 0.0877232
42.07 0.0622163
42.11 0.0447968
42.15 0.0107318
42.19 0.00941386
42.23 -0.00541295
42.27 -0.00468279
42.31 -0.0215564
42.35 -0.0114535
42.39 0.0140276
42.43 0.0185485
42.47 0.0355476
42.51 0.0415096
42.55 0.0596896
42.59 0.108828
42.63 0.135823
42.67 0.182291
42.71 0.2023
42.75 0.233424
42.79 0.243321
42.83 0.241212
42.87 0.213382
42.91 0.181023
42.95 0.149705
42.99 0.0814391
43.03 0.0690139
43.07 0.0657485
43.11 0.0436303
43.15 0.0521072
43.19 0.0469748
43.23 0.0715127
43.27 0.0879351
43.31 0.120915
43.35 0.137018
43.39 0.162742
43.43 0.152669
43.47 0.125797
43.51 0.10728
43.55 0.0706868
43.59 0.0541017
43.63 0.0407437
43.67 0.0370166
43.71 0.0274554
43.75 0.0460481
43.79 0.0334895
43.83 0.0370775
43.87 0.0359129
43.91 0.0108822
43.95 0.00200256
43.99 -0.0116786
44.03 -0.01989
44.07 -0.0163945
44.11 -0.018035
44.15 -0.0230024
44.19 -0.0109316
44.23 -0.00229195
44.27 0.00301183
44.31 0.0284998
44.35 0.0371008
44.39 0.049565
44.43 0.0469889
44.47 0.037188
44.51 0.0178912
44.55 0.000876544
44.59 -0.000745642
44.63 0.00631055
44.67 0.0126676
44.71 0.0281092
44.75 0.0359419
44.79 0.0565406
44.83 0.0265952
44.87 0.0223424
44.91 0.0199731
44.95 -0.0131341
44.99 -0.0104846
45.03 -0.00705782
45.07 -0.00497655
45.11 -0.0145383
45.15 0.0124602
45.19 0.032946
45.23 0.0305988
45.27 0.0561891
45.31 0.0813326
45.35 0.102621
45.39 0.129327
45.43 0.161541
45.47 0.190574
45.51 0.240027
45.55 0.258755
45.59 0.303916
45.63 0.31535
45.67 0.317507
45.71 0.255989
45.75 0.2372
45.79 0.166931
45.83 0.124501
45.87 0.0839145
45.91 0.0744237
45.95 0.0552403
45.99 0.0369438
46.03 0.0219794
46.07 0.0318479
46.11 0.0589139
46.15 0.100562
46.19 0.103825
46.23 0.128028
46.27 0.140807
46.31 0.169968
46.35 0.172612
46.39 0.208498
46.43 0.2429
46.47 0.257591
46.51 0.277983
46.55 0.272434
46.59 0.229945
46.63 0.186869
46.67 0.15421
46.71 0.0968682
46.75 0.0608694
46.79 0.0551478
46.83 0.0446406
46.87 0.0472913
46.91 0.0523742
46.95 0.055479
46.99 0.0734335
47.03 0.115682
47.07 0.189115
47.11 0.207982
47.15 0.226033
47.19 0.225094
47.23 0.163442
47.27 0.0920949
47.31 0.0417455
47.35 0.0225071
47.39 0.0173708
47.43 0.0278456
47.47 0.0273933
47.51 0.022267
47.55 0.0238526
47.59 0.0300294
47.63 0.0350683
47.67 0.0456296
47.71 0.0690734
47.75 0.0634708
47.79 0.047539
47.83 0.0494562
47.87 0.0422428
47.91 0.0483935
47.95 0.0515977
47.99 0.0857972
48.03 0.118814
48.07 0.153617
48.11 0.183476
48.15 0.206608
48.19 0.240866
48.23 0.238659
48.27 0.227207
48.31 0.206231
48.35 0.176291
48.39 0.155095
48.43 0.150359
48.47 0.105374
48.51 0.0799941
48.55 0.0879778
48.59 0.100644
48.63 0.100031
48.67 0.0711493
48.71 0.0940718
48.75 0.116426
48.79 0.149271
48.83 0.177418
48.87 0.169618
48.91 0.150955
48.95 0.120158
48.99 0.0864478
49.03 0.049047
49.07 0.0436023
49.11 0.0255137
49.15 0.0347966
49.19 0.0422021
49.23 0.0359957
49.27 0.0442185
49.31 0.0662454
49.35 0.0493363
49.39 0.0699937
49.43 0.0793533
49.47 0.0778274
49.51 0.098018
49.55 0.106282
49.59 0.109887
49.63 0.141465
49.67 0.131481
49.71 0.144521
49.75 0.110852
49.79 0.0848751
49.83 0.0650485
49.87 0.0541888
49.91 0.0325562
49.95 0.0369873
49.99 0.0117974
50.03 0.01433
50.07 0.0133694
50.11 -0.0135506
50.15 -0.0183331
50.19 -0.00865266
50.23 0.0101522
50.27 0.00897208
50.31 0.0293806
50.35 0.00628127
50.39 0.0243894
50.43 0.0322867
50.47 0.0236079
50.51 0.0207147
50.55 0.0359327
50.59 0.0291689
50.63 0.0172638
50.67 0.0745155
50.71 0.0675734
50.75 0.0714397
50.79 0.105528
50.83 0.153804
50.87 0.193012
50.91 0.17854
50.95 0.196631
50.99 0.196663
51.03 0.155563
51.07 0.120067
51.11 0.0974261
51.15 0.0489989
51.19 0.0621533
51.23 0.0568234
51.27 0.0713159
51.31 0.0581249
51.35 0.0748551
51.39 0.0648823
51.43 0.0679082
51.47 0.0695885
51.51 0.0583244
51.55 0.0789648
51.59 0.0855935
51.63 0.0703076
51.67 0.088568
51.71 0.0638421
51.75 0.0711285
51.79 0.0810134
51.83 0.0809676
51.87 0.0807188
51.91 0.0810838
51.95 0.088719
51.99 0.0732686
52.03 0.0822817
52.07 0.0710301
52.11 0.0675279
52.15 0.0381374
52.19 0.0453673
52.23 0.0254676
52.27 0.00513051
52.31 -0.00620888
52.35 0.0116289
52.39 0.000635462
52.43 -0.0069836
52.47 -0.0114454
52.51 -0.000225593
52.55 0.0237269
52.59 0.0287525
52.63 0.0367897
52.67 0.0564098
52.71 0.0566277
52.75 0.072316
52.79 0.0811591
52.83 0.0751997
52.87 0.0677805
52.91 0.0882631
52.95 0.0726443
52.99 0.0706221
53.03 0.117213
53.07 0.12732
53.11 0.122846
53.15 0.12987
53.19 0.153343
53.23 0.137048
53.27 0.158656
53.31 0.125821
53.35 0.0998355
53.39 0.0669339
53.43 0.0684091
53.47 0.0527278
53.51 0.0500371
53.55 0.0529805
53.59 0.0528424
53.63 0.065545
53.67 0.053859
53.71 0.0700323
53.75 0.0386028
53.79 0.0467349
53.83 0.0614456
53.87 0.0463967
53.91 0.0633988
53.95 0.0548899
53.99 0.0355156
54.03 0.0481457
54.07 0.00197541
54.11 0.0142507
54.15 0.00156758
54.19 0.011848
54.23 -0.0169087
54.27 0.0111478
54.31 0.011845
54.35 0.0101882
54.39 -0.00581632
54.43 -0.00463103
54.47 0.0136788
54.51 0.0281338
54.55 -0.00621698
54.59 0.0071134
54.63 0.0176695
54.67 0.0180183
54.71 0.0188646
54.75 0.0200896
54.79 0.0147614
54.83 0.00928696
54.87 0.0208327
54.91 -0.0104704
54.95 0.010406
54.99 0.0130355
55.03 0.0163182
55.07 -0.000831864
55.11 0.0172015
55.15 0.0131954
55.19 0.0382206
55.23 0.0441637
55.27 0.0307373
55.31 0.0599756
55.35 0.0275946
55.39 0.0100554
55.43 -0.00898819
55.47 -0.00183415
55.51 -0.00845528
55.55 -0.00791127
55.59 -0.00272415
55.63 -0.00693812
55.67 -0.00765666
55.71 -0.00407938
55.75 0.0100647
55.79 0.022158
55.83 0.00546482
55.87 0.00834667
55.91 0.0300871
55.95 0.0259686
55.99 0.0166161
56.03 0.0200512
56.07 0.0138188
56.11 -0.0042014
56.15 0.0103713
56.19 0.0159256
56.23 -0.00493864
56.27 0.0159328
56.31 0.0255676
56.35 0.030779
56.39 0.0468447
56.43 0.0500964
56.47 0.0544729
56.51 0.0490271
56.55 0.0235424
56.59 0.0289877
56.63 0.0159417
56.67 0.0169811
56.71 0.0261548
56.75 0.0348831
56.79 0.0349761
56.83 0.04649
56.87 0.0568348
56.91 0.0683128
56.95 0.0635416
56.99 0.0851831
57.03 0.076825
57.07 0.0552821
57.11 0.072929
57.15 0.0743728
57.19 0.0978744
57.23 0.111225
57.27 0.121319
57.31 0.151293
57.35 0.152024
57.39 0.178059
57.43 0.198675
57.47 0.203687
57.51 0.194937
57.55 0.180939
57.59 0.181952
57.63 0.14473
57.67 0.101765
57.71 0.062929
57.75 0.030135
57.79 0.0084877
57.83 -0.00735433
57.87 -3.32248e-05
57.91 -0.0109931
57.95 -0.0102971
57.99 -0.004257
58.03 0.00922157
58.07 0.00438091
58.11 0.0130879
58.15 0.00458429
58.19 0.0286114
58.23 0.0215795
58.27 0.0127483
58.31 0.01897
58.35 0.0256551
58.39 0.0253387
58.43 0.0433697
58.47 0.0439274
58.51 0.0748053
58.55 0.0599964
58.59 0.0687893
58.63 0.053816
58.67 0.0557126
58.71 0.0655685
58.75 0.0577638
58.79 0.0821996
58.83 0.0648354
58.87 0.080152
58.91 0.0730074
58.95 0.0845271
58.99 0.0958534
59.03 0.0913557
59.07 0.0549501
59.11 0.0464238
59.15 0.0378243
59.19 0.0301988
59.23 0.0175781
59.27 0.0218294
59.31 -0.00553554
59.35 0.0102954
59.39 -0.00279947
59.43 -0.0133341
59.47 0.00150507
59.51 -0.0138651
59.55 0.00960386
59.59 0.0012279
59.63 -0.0139354
59.67 0.00159629
59.71 0.000251546
59.75 0.0126101
59.79 -0.0033991
59.83 -0.00395873
59.87 0.0160322
59.91 -0.0106949
59.95 9.25238e-05
59.99 -0.00479809
60.03 -0.00753646
60.07 -0.0100349
60.11 0.0215491
60.15 0.00782932
60.19 0.00451474
60.23 -0.00545349
60.27 0.0135507
60.31 0.0053745
60.35 0.0237219
60.39 0.0131736
60.43 0.0347787
60.47 0.0457043
60.51 0.0582127
60.55 0.0691025
60.59 0.0829756
60.63 0.0555958
60.67 0.069151
60.71 0.0502929
60.75 0.0319662
60.79 0.0483078
60.83 0.038295
60.87 0.0499046
60.91 0.0636411
60.95 0.0432916
60.99 0.0730603
61.03 0.0437037
61.07 0.0242811
61.11 0.0224661
61.15 0.028565
61.19 0.0270891
61.23 0.00988836
61.27 0.0212902
61.31 0.00669465
61.35 0.0110983
61.39 0.0123552
61.43 0.0214327
61.47 0.0116158
61.51 0.0102581
61.55 0.00923804
61.59 0.011908
61.63 0.00796328
61.67 0.00993868
61.71 0.0101146
61.75 0.0116778
61.79 0.0130221
61.83 -0.0103588
61.87 0.00584932
61.91 -0.0181592
61.95 -0.00556476
61.99 0.00591
62.03 0.000335951
62.07 0.011406
62.11 0.0182898
62.15 -0.0126683
62.19 0.000126463
62.23 -0.00905954
62.27 0.00489563
62.31 0.0210049
62.35 0.00344393
62.39 0.0344318
62.43 0.0120345
62.47 -0.00515547
62.51 -0.00633596
62.55 0.00358185
62.59 0.00626232
62.63 0.0125102
62.67 0.000437389
62.71 0.00948799
62.75 0.00231602
62.79 0.0260984
62.83 0.026137
62.87 0.0129187
62.91 0.034352
62.95 0.0106256
62.99 0.00684104
63.03 0.0127167
63.07 0.0242762
63.11 0.00924052
63.15 0.00922889
63.19 0.00357449
63.23 -0.00530022
63.27 0.00761879
63.31 -0.00654467
63.35 0.00815178
63.39 -0.00382578
63.43 0.00218837
63.47 -0.00446615
63.51 0.00431683
63.55 0.00690823
63.59 0.00836074
63.63 0.00333307
63.67 0.0045916
63.71 0.00182986
63.75 0.00753328
63.79 -0.0176988
63.795 -0.0189373