File: data/xrd/xy/2019-05-29T19_56_50.129046+00_00_LBL_E8.xy
'Id: "" Comment: "Integrate frame 4Fluorophenyl_05_002.gfrmwith cursor Wedge Cursor #1" Operator: "UC Berkeley" Anode: "Co" Scantype: "TwoTheta" TimePerStep: "600"
14.435 -0.0420468
14.47 0.0170579
14.505 -0.040797
14.54 0.0324006
14.575 0.0285584
14.61 0.0322529
14.645 -0.0138215
14.68 0.046795
14.715 0.0275824
14.75 0.0174932
14.785 0.0950279
14.82 0.0110099
14.855 0.0612401
14.89 0.0268622
14.925 0.0586991
14.96 0.0342132
14.995 0.0463813
15.03 0.0718392
15.065 0.043139
15.1 0.0276581
15.135 0.0100385
15.17 0.0291687
15.205 0.0659062
15.24 0.0438406
15.275 0.0280017
15.31 0.0225003
15.345 0.0476798
15.38 0.0184088
15.415 0.0125888
15.45 0.0738
15.485 0.0682607
15.52 0.0563291
15.555 0.0239316
15.59 0.0358042
15.625 0.0624582
15.66 0.0502087
15.695 0.000948896
15.73 0.0347851
15.765 -0.0292209
15.8 0.00150144
15.835 0.0194899
15.87 0.0347442
15.905 0.0528534
15.94 0.0670421
15.975 0.0232341
16.01 0.0897078
16.045 0.0337856
16.08 0.0392428
16.115 0.0364676
16.15 0.0558181
16.185 0.0457292
16.22 0.00970596
16.255 0.0173269
16.29 0.0422429
16.325 0.0217217
16.36 0.0771996
16.395 0.00215344
16.43 0.042187
16.465 0.02565
16.5 0.0455457
16.535 0.0136443
16.57 0.0240891
16.605 -0.0215406
16.64 0.0556534
16.675 0.103316
16.71 0.0443429
16.745 0.0540061
16.78 -0.00241409
16.815 0.0255209
16.85 0.00143471
16.885 -0.00437279
16.92 0.0180364
16.955 0.0560048
16.99 0.0677038
17.025 0.0504474
17.06 0.0760536
17.095 0.0724312
17.13 0.132214
17.165 0.179213
17.2 0.151623
17.235 0.218988
17.27 0.164588
17.305 0.17251
17.34 0.158998
17.375 0.0529169
17.41 -0.0238813
17.445 0.064175
17.48 0.030266
17.515 0.0207956
17.55 0.0221613
17.585 0.0404117
17.62 0.00846146
17.655 0.0726825
17.69 0.033835
17.725 0.015375
17.76 0.0219116
17.795 0.0147454
17.83 0.110058
17.865 0.0158714
17.9 0.0629148
17.935 0.0126376
17.97 -0.0186737
18.005 0.0213582
18.04 0.00438396
18.075 0.0314836
18.11 0.0249687
18.145 0.0351281
18.18 0.0575889
18.215 0.0111606
18.25 0.0692311
18.285 0.0211713
18.32 0.0492313
18.355 0.0576418
18.39 0.0329928
18.425 0.0745883
18.46 0.0694933
18.495 0.0886668
18.53 0.150323
18.565 0.225603
18.6 0.233267
18.635 0.243855
18.67 0.245029
18.705 0.242018
18.74 0.154697
18.775 0.0723969
18.81 0.0474177
18.845 0.0592754
18.88 0.0139334
18.915 0.000811698
18.95 0.0161739
18.985 0.030173
19.02 0.0338601
19.055 0.0251368
19.09 -0.00872313
19.125 0.00668566
19.16 0.0446383
19.195 0.0237682
19.23 0.016889
19.265 0.00397862
19.3 0.0139976
19.335 0.0433151
19.37 -0.00268477
19.405 0.00257225
19.44 0.0490102
19.475 0.023445
19.51 0.0162924
19.545 -0.00469301
19.58 0.0111437
19.615 -0.0166748
19.65 -0.00197502
19.685 0.0351289
19.72 0.0607814
19.755 0.0299648
19.79 0.0649463
19.825 0.0183914
19.86 0.0533033
19.895 0.0259592
19.93 0.0489444
19.965 0.0627975
20 -0.00194046
20.035 0.0268013
20.07 0.0106335
20.105 -0.0115894
20.14 -0.009377
20.175 0.0334859
20.21 0.0729704
20.245 -0.0103009
20.28 0.0026761
20.315 -0.00490368
20.35 0.0623368
20.385 -0.0183879
20.42 0.0433301
20.455 -0.000437508
20.49 0.0348844
20.525 0.0285563
20.56 0.0535153
20.595 0.0432605
20.63 0.0249736
20.665 -0.00187892
20.7 0.0615918
20.735 0.0456839
20.77 0.0276293
20.805 0.0262031
20.84 0.0204353
20.875 0.0239518
20.91 0.0346028
20.945 0.0384543
20.98 -0.000749118
21.015 0.0346042
21.05 0.04485
21.085 -0.0139463
21.12 0.0435425
21.155 0.062582
21.19 0.00790997
21.225 0.0319418
21.26 0.00620623
21.295 0.0612406
21.33 0.027786
21.365 0.0453363
21.4 0.0426002
21.435 0.00595078
21.47 0.0134711
21.505 -0.0170003
21.54 0.0451523
21.575 0.0604423
21.61 0.0400197
21.645 0.043553
21.68 0.0196599
21.715 0.0563069
21.75 0.0341841
21.785 0.0309813
21.82 0.011252
21.855 -0.000616358
21.89 0.0491576
21.925 0.07602
21.96 0.0281969
21.995 0.0124101
22.03 0.0445229
22.065 0.0458108
22.1 0.0177911
22.135 0.044396
22.17 0.0214309
22.205 0.0170491
22.24 0.0351295
22.275 0.0543971
22.31 0.0587844
22.345 0.0524579
22.38 0.00240991
22.415 0.00745732
22.45 0.0251878
22.485 0.0163198
22.52 0.0402744
22.555 0.0466064
22.59 0.0447737
22.625 0.0101166
22.66 0.0195574
22.695 0.0118236
22.73 0.0190267
22.765 0.0361403
22.8 0.0418921
22.835 0.0677843
22.87 0.0212264
22.905 0.0675342
22.94 0.0561329
22.975 0.0414014
23.01 0.0356673
23.045 0.0423489
23.08 0.0252855
23.115 0.0519563
23.15 0.0114961
23.185 0.0719238
23.22 -0.00166595
23.255 0.0714765
23.29 0.0442895
23.325 0.0255736
23.36 0.0412887
23.395 0.0660513
23.43 0.0457423
23.465 0.0257111
23.5 0.0272111
23.535 0.0715221
23.57 0.0671822
23.605 0.0851538
23.64 0.0615893
23.675 0.0666635
23.71 0.0297114
23.745 -0.00111739
23.78 0.0687197
23.815 0.0512598
23.85 0.0181513
23.885 0.0925931
23.92 0.0595921
23.955 0.0739032
23.99 0.0809731
24.025 0.0682442
24.06 0.0515181
24.095 0.00800648
24.13 0.0340933
24.165 0.0301689
24.2 0.0438438
24.235 0.0288745
24.27 0.0494261
24.305 0.0294777
24.34 0.00704472
24.375 0.0205728
24.41 0.0226605
24.445 -0.0105704
24.48 0.0393622
24.515 0.0216504
24.55 0.0085541
24.585 0.0419822
24.62 0.00591085
24.655 0.0133234
24.69 0.030239
24.725 0.000306546
24.76 0.00618064
24.795 0.0685356
24.83 0.0735217
24.865 0.197775
24.9 0.378309
24.935 0.506555
24.97 0.653405
25.005 0.641841
25.04 0.550306
25.075 0.396055
25.11 0.268427
25.145 0.12598
25.18 0.0577241
25.215 0.0234266
25.25 0.0130473
25.285 0.0221542
25.32 -0.00130801
25.355 0.0289579
25.39 0.0266539
25.425 -0.00512248
25.46 0.00419544
25.495 0.00570495
25.53 0.0542293
25.565 0.00490083
25.6 0.0277141
25.635 0.0107306
25.67 0.0528742
25.705 -0.0274373
25.74 -0.00992824
25.775 -0.00827592
25.81 0.00863337
25.845 0.010257
25.88 -2.51964e-05
25.915 -0.0040997
25.95 0.0186049
25.985 0.00315056
26.02 0.0134686
26.055 0.00768366
26.09 0.0334388
26.125 0.00407569
26.16 0.027066
26.195 0.016468
26.23 0.0404638
26.265 -0.0149567
26.3 0.0249634
26.335 0.0191495
26.37 0.0246171
26.405 0.0317948
26.44 0.0561791
26.475 0.0924756
26.51 0.173731
26.545 0.223372
26.58 0.307793
26.615 0.289576
26.65 0.278669
26.685 0.151143
26.72 0.106766
26.755 0.0617766
26.79 0.0787364
26.825 0.00481435
26.86 -0.00399697
26.895 0.0208628
26.93 0.048307
26.965 0.0219852
27 0.0887718
27.035 0.0315738
27.07 0.0206372
27.105 0.029251
27.14 0.0206707
27.175 0.0139745
27.21 0.0662984
27.245 -0.0040457
27.28 -0.0214335
27.315 0.00901041
27.35 -0.0325164
27.385 -0.000202383
27.42 0.0180548
27.455 0.0225606
27.49 -0.014205
27.525 0.0181206
27.56 0.0194433
27.595 0.016875
27.63 0.038115
27.665 -0.0106124
27.7 -0.00399935
27.735 0.022832
27.77 0.0298697
27.805 -0.027512
27.84 0.0480288
27.875 0.0340833
27.91 0.00788213
27.945 0.0478232
27.98 0.0505977
28.015 0.0308321
28.05 0.0288752
28.085 0.00515927
28.12 0.00912039
28.155 -0.018839
28.19 -0.00240854
28.225 0.0436094
28.26 0.0300428
28.295 -0.024959
28.33 0.0258192
28.365 -0.0259176
28.4 -0.0212154
28.435 0.0477335
28.47 0.047078
28.505 0.055243
28.54 0.0494408
28.575 0.0553402
28.61 0.035566
28.645 0.0366524
28.68 0.0254537
28.715 0.0347024
28.75 0.0348128
28.785 0.0529347
28.82 0.0305194
28.855 0.0397295
28.89 0.0477736
28.925 0.0130765
28.96 0.00635501
28.995 0.0114553
29.03 -0.0278946
29.065 -0.0242639
29.1 0.0256262
29.135 -0.00626381
29.17 0.0112347
29.205 -0.00118388
29.24 -0.00654155
29.275 -0.0194661
29.31 0.0110288
29.345 -0.00239316
29.38 -0.0236582
29.415 0.0112427
29.45 0.00487935
29.485 0.0109013
29.52 0.00361115
29.555 0.012901
29.59 0.00177689
29.625 -0.00309219
29.66 0.0127056
29.695 -0.0200382
29.73 0.0239347
29.765 -0.00603381
29.8 0.0401273
29.835 -0.0311724
29.87 -0.0298893
29.905 0.0145033
29.94 -0.00194474
29.975 0.0420913
30.01 0.0189013
30.045 -0.0134361
30.08 0.0132709
30.115 0.020372
30.15 0.00298419
30.185 -0.0130925
30.22 -0.00722831
30.255 0.0198105
30.29 0.0117296
30.325 0.0269061
30.36 0.0517938
30.395 0.0445634
30.43 0.0696193
30.465 0.0509455
30.5 0.022118
30.535 0.0699078
30.57 0.0415267
30.605 0.0247941
30.64 0.0401291
30.675 0.0174897
30.71 0.0621008
30.745 0.0193982
30.78 0.0560866
30.815 0.0228608
30.85 0.0381254
30.885 0.0283625
30.92 0.0509393
30.955 0.115358
30.99 0.245365
31.025 0.335242
31.06 0.334553
31.095 0.307219
31.13 0.213129
31.165 0.163121
31.2 0.164561
31.235 0.250052
31.27 0.50299
31.305 0.989668
31.34 1.59059
31.375 2.1968
31.41 2.46047
31.445 2.22148
31.48 1.71623
31.515 1.08467
31.55 0.616638
31.585 0.298145
31.62 0.153997
31.655 0.119713
31.69 0.152949
31.725 0.208869
31.76 0.224403
31.795 0.244548
31.83 0.198449
31.865 0.145516
31.9 0.0708687
31.935 0.0879753
31.97 0.0362032
32.005 0.040253
32.04 0.0116992
32.075 0.00774525
32.11 0.0287457
32.145 0.00552249
32.18 0.0047482
32.215 -0.0199052
32.25 -0.000201178
32.285 0.00631402
32.32 0.0202385
32.355 0.0206585
32.39 0.00827918
32.425 0.00624884
32.46 -0.0057878
32.495 0.017778
32.53 0.0105439
32.565 0.0256652
32.6 0.0127933
32.635 0.0384962
32.67 0.021696
32.705 0.0155302
32.74 -0.0145516
32.775 -0.00158855
32.81 -0.00579192
32.845 -0.00939461
32.88 0.019838
32.915 0.0192279
32.95 0.0321133
32.985 -0.00222359
33.02 0.0123006
33.055 -0.00831834
33.09 -0.00397305
33.125 -0.0170935
33.16 -0.000205928
33.195 -0.0121895
33.23 0.0119343
33.265 -0.00536325
33.3 -0.00510399
33.335 0.00467907
33.37 -0.0138052
33.405 0.00108704
33.44 0.00395995
33.475 0.0120494
33.51 0.0213784
33.545 0.00287931
33.58 0.0203705
33.615 0.016674
33.65 0.0292449
33.685 0.0272409
33.72 0.0398761
33.755 0.107485
33.79 0.154022
33.825 0.20621
33.86 0.262613
33.895 0.282623
33.93 0.350853
33.965 0.309473
34 0.312548
34.035 0.323151
34.07 0.361187
34.105 0.395527
34.14 0.422545
34.175 0.36554
34.21 0.302354
34.245 0.232376
34.28 0.122955
34.315 0.0632457
34.35 0.0530879
34.385 0.0249218
34.42 -0.00159506
34.455 0.0147722
34.49 -0.0160386
34.525 0.0116654
34.56 -0.0129665
34.595 0.00486122
34.63 -0.0050483
34.665 0.0113264
34.7 0.00647104
34.735 0.0236875
34.77 0.00139575
34.805 0.0397941
34.84 0.0273117
34.875 0.033425
34.91 0.0291659
34.945 0.049589
34.98 0.0153073
35.015 0.0073854
35.05 0.0114478
35.085 -0.00291251
35.12 0.00212072
35.155 0.0297311
35.19 0.0338594
35.225 0.0491542
35.26 0.03935
35.295 -0.000403685
35.33 0.0172815
35.365 0.0181068
35.4 0.00382445
35.435 -0.00911464
35.47 -0.00825648
35.505 0.00837017
35.54 0.000248392
35.575 0.0103675
35.61 -0.00366947
35.645 -0.0126768
35.68 -0.00621257
35.715 -0.00428797
35.75 -0.0072329
35.785 0.00410539
35.82 0.00865113
35.855 -0.017107
35.89 0.00121011
35.925 0.0122201
35.96 0.00510588
35.995 -0.00657618
36.03 -0.012367
36.065 0.00592756
36.1 0.00612426
36.135 0.00139877
36.17 0.00111729
36.205 -0.0135175
36.24 0.00258424
36.275 -0.0100863
36.31 -0.0115063
36.345 0.0148699
36.38 0.0115799
36.415 -0.012979
36.45 -0.00290687
36.485 0.0145176
36.52 0.00701523
36.555 -0.0013052
36.59 -0.00182997
36.625 0.0191214
36.66 0.00873623
36.695 0.015404
36.73 -0.0106947
36.765 -0.0180699
36.8 0.000997688
36.835 -0.0114609
36.87 0.0119826
36.905 -0.0275748
36.94 0.0064484
36.975 0.0230462
37.01 0.0143642
37.045 -0.00554111
37.08 0.0117663
37.115 0.00879535
37.15 0.031473
37.185 -0.0270041
37.22 -0.00559963
37.255 0.0267815
37.29 0.000635653
37.325 0.00735848
37.36 0.00957728
37.395 0.0465054
37.43 0.0609109
37.465 0.0829761
37.5 0.0990375
37.535 0.101333
37.57 0.102755
37.605 0.0935452
37.64 0.108174
37.675 0.134694
37.71 0.190259
37.745 0.339951
37.78 0.517212
37.815 0.738103
37.85 0.926765
37.885 1.00435
37.92 1.01246
37.955 0.921373
37.99 0.770652
38.025 0.572976
38.06 0.379127
38.095 0.265646
38.13 0.16573
38.165 0.119963
38.2 0.089682
38.235 0.077949
38.27 0.0673724
38.305 0.0852959
38.34 0.0741722
38.375 0.0681571
38.41 0.0416091
38.445 0.0420358
38.48 0.0150172
38.515 0.0123898
38.55 0.0376981
38.585 0.00384462
38.62 0.0028508
38.655 -0.00433499
38.69 -0.00389409
38.725 -0.00645873
38.76 0.00687865
38.795 0.000682919
38.83 -0.00928223
38.865 -0.0101383
38.9 -0.0185493
38.935 -0.00557665
38.97 0.00400352
39.005 -0.0095827
39.04 0.00277113
39.075 -0.00590319
39.11 -0.0229089
39.145 0.00390559
39.18 0.0169037
39.215 0.010533
39.25 -0.00563726
39.285 -0.0168112
39.32 0.00148344
39.355 0.00687165
39.39 -0.0141134
39.425 0.0107946
39.46 -0.0020434
39.495 0.00440863
39.53 -0.00695635
39.565 -0.00268385
39.6 -0.00965712
39.635 0.0146716
39.67 -0.00755956
39.705 0.00052625
39.74 -0.00127006
39.775 0.00179011
39.81 0.0157361
39.845 0.0147223
39.88 0.0176577
39.915 0.0304367
39.95 0.0519713
39.985 0.0529349
40.02 0.0490903
40.055 0.0378362
40.09 0.0265971
40.125 0.0310988
40.16 0.0149124
40.195 0.0116438
40.23 0.00561063
40.265 0.0072012
40.3 -0.00181644
40.335 -0.00715418
40.37 -0.00623081
40.405 0.000767969
40.44 -0.0065046
40.475 0.00504845
40.51 -0.00444872
40.545 0.0110958
40.58 0.00356823
40.615 -0.0133702
40.65 -0.00505109
40.685 -0.00442115
40.72 -0.00373849
40.755 0.0164907
40.79 0.00284504
40.825 0.0138415
40.86 0.00117462
40.895 0.0221668
40.93 0.0302815
40.965 0.017393
41 0.00676795
41.035 0.0205067
41.07 0.0090974
41.105 -0.00746808
41.14 0.00932749
41.175 -0.00126008
41.21 0.003354
41.245 0.00634002
41.28 0.00939081
41.315 0.00734351
41.35 0.0382208
41.385 -0.00350421
41.42 0.0205728
41.455 0.0101926
41.49 0.00526724
41.525 -0.0187
41.56 -0.0188369
41.595 0.011158
41.63 0.00279226
41.665 0.00487791
41.7 0.00971477
41.735 -0.00351625
41.77 -0.0116175
41.805 0.0167885
41.84 0.0152453
41.875 0.00301025
41.91 0.00897001
41.945 0.0133358
41.98 0.0237696
42.015 0.014754
42.05 0.00393788
42.085 0.013899
42.12 0.00949801
42.155 0.0234537
42.19 -0.00218019
42.225 0.0104355
42.26 0.00109634
42.295 0.0124444
42.33 -0.00460645
42.365 0.00778984
42.4 0.00489505
42.435 0.00421207
42.47 0.0128899
42.505 0.0116335
42.54 0.00720353
42.575 -0.0130806
42.61 -0.00793281
42.645 -0.00545061
42.68 -0.0143736
42.715 -0.00120066
42.75 -0.00848005
42.785 -0.0126652
42.82 -0.0162968
42.855 -0.0113811
42.89 0.0168989
42.925 0.0137198
42.96 0.00792084
42.995 0.00407336
43.03 -0.013038
43.065 0.0167418
43.1 -0.00773619
43.135 0.00431404
43.17 0.00132712
43.205 -0.00398219
43.24 0.0040104
43.275 0.0135191
43.31 0.0119974
43.345 0.00233756
43.38 0.016228
43.415 0.00869245
43.45 0.0158731
43.485 0.0104911
43.52 0.027539
43.555 -0.00311264
43.59 0.0156972
43.625 0.0144532
43.66 0.0227792
43.695 0.00919587
43.73 0.0161622
43.765 0.0142562
43.8 -0.000212242
43.835 0.0156325
43.87 -0.00289022
43.905 -0.000159612
43.94 0.0336333
43.975 -0.00375834
44.01 0.018536
44.045 0.000404343
44.08 -0.00836423
44.115 -0.00195908
44.15 0.00568292
44.185 0.00127404
44.22 0.00972566
44.255 0.0121725
44.29 0.0121535
44.325 0.00377329
44.36 0.0211614
44.395 -0.0190324
44.43 0.0204417
44.465 0.0175447
44.5 0.00560926
44.535 0.0135092
44.57 0.0122963
44.605 0.00497048
44.64 -0.0184668
44.675 0.0170769
44.71 0.0208122
44.745 0.0354115
44.78 0.00320895
44.815 -0.00299454
44.85 0.000809072
44.885 -0.0141616
44.92 0.0138416
44.955 -0.00760851
44.99 0.000595134
45.025 -0.00546431
45.06 -0.012278
45.095 0.0137405
45.13 0.0103467
45.165 -0.0096181
45.2 0.00164329
45.235 0.0143141
45.27 0.00792307
45.305 0.000164377
45.34 0.0028484
45.375 0.0127585
45.41 0.000212559
45.445 0.0130898
45.48 -0.00722812
45.515 0.00525101
45.55 0.0062379
45.585 0.013252
45.62 0.0243299
45.655 -0.0118042
45.69 0.00262661
45.725 -0.000752006
45.76 0.0131408
45.795 -0.00118571
45.83 0.0182195
45.865 -0.00470736
45.9 -0.0135649
45.935 -0.0139105
45.97 0.0173115
46.005 -0.00322504
46.04 -0.00117362
46.075 0.0131251
46.11 0.00543237
46.145 -0.010241
46.18 0.00677946
46.215 0.0133483
46.25 0.0156244
46.285 0.0135842
46.32 -0.0115799
46.355 0.0190115
46.39 0.00197681
46.425 0.0115194
46.46 -0.000614968
46.495 0.019952
46.53 -0.0025853
46.565 0.00264446
46.6 -0.00552685
46.635 0.00535108
46.67 -0.00278451
46.705 -0.000227705
46.74 0.00878692
46.775 0.0172886
46.81 0.0035874
46.845 0.000501369
46.88 0.00302809
46.915 -3.25385e-05
46.95 -0.00320083
46.985 0.00954339
47.02 0.00132654
47.055 0.00243215
47.09 0.00157508
47.125 -0.0105256
47.16 0.004228
47.195 0.0123147
47.23 -0.0011459
47.265 0.00335679
47.3 -0.0189854
47.335 0.00264787
47.37 -0.00346801
47.405 0.00334113
47.44 0.0080974
47.475 -0.0061661
47.51 -0.00660772
47.545 -0.0103799
47.58 -0.0106452
47.615 -0.0111734
47.65 0.0108971
47.685 0.0084654
47.72 0.0144636
47.755 -0.00241769
47.79 -0.00714998
47.825 -0.00419542
47.86 -0.00820896
47.895 -0.0142793
47.93 -0.00963859
47.965 0.00628248
48 -0.00244148
48.035 0.00717148
48.07 0.00287407
48.105 -0.0215685
48.14 -0.000440389
48.175 -0.0047337
48.21 -0.00697692
48.245 -0.00179059
48.28 -0.00359075
48.315 -0.000837753
48.35 -0.00310956
48.385 -0.0032803
48.42 -0.00283499
48.455 0.00277842
48.49 -0.000596295
48.525 -0.00222138
48.56 0.00692481
48.595 -0.00550786
48.63 -0.00579408
48.665 0.00538005
48.7 -0.00777005
48.735 0.00578589
48.77 -0.00877205
48.805 0.00893844
48.84 0.00438975
48.875 -0.00935499
48.91 0.00277434
48.945 -0.00191429
48.98 -0.00569929
49.015 -0.00793884
49.05 0.0015658
49.085 0.0102851
49.12 -0.0119769
49.155 -0.00101401
49.19 -0.000815859
49.225 0.0127401
49.26 0.00241515
49.295 -0.0209497
49.33 -0.00129318
49.365 -0.000701582
49.4 -0.000559294
49.435 0.00328654
49.47 -0.00398979
49.505 0.00978846
49.54 -0.0106952
49.575 -0.000569653
49.61 -0.00491421
49.645 -0.00826314
49.68 -0.00904501
49.715 -2.51601e-05
49.75 0.00048222
49.785 -0.00556247
49.82 0.008533
49.855 0.00429576
49.89 -0.000156592
49.925 -0.00391196
49.96 -0.00752162
49.995 -0.00507625
50.03 0.00240102
50.065 0.00273642
50.1 -1.38697e-05
50.135 -0.00371377
50.17 0.00478463
50.205 -0.00316275
50.24 0.00306494
50.275 -0.00651288
50.31 -0.0128537
50.345 -0.00527481
50.38 -0.014219
50.415 -0.00545562
50.45 0.00414671
50.485 -0.012911
50.52 -0.00367524
50.555 0.000351581
50.59 -0.00717946
50.625 -0.00985261
50.66 -0.00497602
50.695 -0.0157574
50.73 0.000516111
50.765 -0.000478011
50.8 -0.0112086
50.835 -0.00332592
50.87 -0.00996388
50.905 -0.001335
50.94 -0.00654977
50.975 -0.00147108
51.01 -0.0120336
51.045 -0.014345
51.08 0.00389802
51.115 -0.00606383
51.15 -0.0138954
51.185 -0.0133457
51.22 0.00657193
51.255 -0.0103107
51.29 -0.0119206
51.325 -0.00386548
51.36 -0.00817528
51.395 -0.00840132
51.43 -0.00775308
51.465 -0.00404576
51.5 -0.0201431
51.535 -0.0014886
51.57 -0.0166682
51.605 -0.00652717
51.64 -0.00518871
51.675 0.00402651
51.71 0.00448422
51.745 -0.0104102
51.78 -0.0106722
51.815 -0.00818819
51.85 -0.00623931
51.885 -0.0136304
51.92 0.00329743
51.955 -0.00120233
51.99 0.00154885
52.025 0.000921257
52.06 0.00253238
52.095 -0.00392112
52.13 -0.00157078
52.165 -0.00491138
52.2 -0.0025768
52.235 -0.0119561
52.27 -0.000500577
52.305 -0.0174977
52.34 -0.0151049
52.375 -0.00494806
52.41 -0.00236578
52.445 0.00128599
52.48 -0.00627075
52.515 0.00346985
52.55 0.0022076
52.585 -0.00982449
52.62 -0.00497255
52.655 0.00632401
52.69 -0.00450151
52.725 0.0130442
52.76 0.000245626
52.795 0.00316068
52.83 -0.0125586
52.865 0.00431254
52.9 -0.00857354
52.935 -0.00804002
52.97 0.00344546
53.005 0.0112588
53.04 -0.0194193
53.075 0.0122195
53.11 0.00198123
53.145 -0.00909511
53.18 0.00513958
53.215 0.00284811
53.25 0.013452
53.285 0.00287202
53.32 -0.00205406
53.355 0.000676345
53.39 -0.00266722
53.425 -0.000962297
53.46 0.00944794
53.495 0.00073466
53.53 0.000713987
53.565 -0.00333474
53.6 0.0117731
53.635 0.00889987
53.67 0.000785749
53.705 0.00725764
53.74 0.00397735
53.775 0.00208585
53.81 -0.0119268
53.845 -0.00959643
53.88 -0.0104101
53.915 0.00991953
53.95 0.00752156
53.985 0.0013945
54.02 0.0155768
54.055 -0.0111208
54.09 -0.0101088
54.125 0.00910599
54.16 -0.00603683
54.195 4.28467e-05
54.23 0.00211079
54.265 0.0108068
54.3 0.000667691
54.335 0.00321931
54.37 -0.00590092
54.405 -0.00315926
54.44 0.00907191
54.475 -0.00561799
54.51 0.00856451
54.545 0.00851008
54.58 -0.00561824
54.615 0.00938377
54.65 0.00713836
54.685 -0.00544048
54.72 0.000660193
54.755 -0.00278953
54.79 -0.00147829
54.825 0.00230127
54.86 -0.00211548
54.895 -0.0141145
54.93 -0.00144206
54.965 -0.00221796
55 -0.000237094
55.035 -0.00216466
55.07 -0.00794834
55.105 -0.00228603
55.14 -0.0052981
55.175 -0.0136207
55.21 -0.00628209
55.245 -0.00648712
55.28 0.00608663
55.315 -0.00684258
55.35 -0.00260204
55.385 -0.00517127
55.42 -0.0139459
55.455 -0.00419567
55.49 -0.00978559
55.525 0.00380094
55.56 0.00204444
55.595 0.00722081
55.63 -0.00538037
55.665 -0.0132918
55.7 -0.00329894
55.735 -0.00346176
55.77 -0.00407657
55.805 -0.00913177
55.84 -0.00154487
55.875 -0.00466999
55.91 0.000939984
55.945 -0.00788975
55.98 0.00180325
56.015 -0.00793013
56.05 -0.00274088
56.085 -0.00612015
56.12 -0.00650465
56.155 0.00651683
56.19 -0.00768904
56.225 0.00649585
56.26 0.00337107
56.295 -0.00139639
56.33 0.00598987
56.365 0.00252317
56.4 0.00933458
56.435 0.00571121
56.47 0.000189521
56.505 0.00438884
56.54 0.00273227
56.575 0.00243366
56.61 -0.0109808
56.645 -0.000726988
56.68 0.00315728
56.715 0.00419619
56.75 0.00177096
56.785 -0.00693278
56.82 0.0152352
56.855 0.00343102
56.89 -0.018266
56.925 0.0081553
56.96 0.00136682
56.995 -0.0037641
57.03 0.00948321
57.065 0.0122849
57.1 0.0052876
57.135 0.00766572
57.17 0.009897
57.205 -0.00326254
57.24 0.00201768
57.275 0.0070805
57.31 0.000402388
57.345 -0.00206699
57.38 0.00438371
57.415 -0.00358222
57.45 -0.0103856
57.485 0.0170266
57.52 0.0028792
57.555 -0.00333353
57.59 0.0142758
57.625 -0.00199484
57.66 -0.000545864
57.695 0.0128548
57.73 -0.00546721
57.765 -0.000623678
57.8 -0.00505106
57.835 -0.00643533
57.87 -0.00437616
57.905 0.0172115
57.94 0.0135727
57.975 0.00638548
58.01 0.0152421
58.045 -0.00289065
58.08 0.00197583
58.115 0.0181072
58.15 0.00367693
58.185 0.00445722
58.22 -0.00809863
58.255 0.0040069
58.29 0.0149486
58.325 0.00637539
58.36 0.0168125
58.395 -0.00887421
58.43 0.0134951
58.465 -0.0137381
58.5 -0.0072075
58.535 -0.00636966
58.57 0.0127123
58.605 0.00220217
58.64 0.0154639
58.675 -0.000262617
58.71 -0.00977441
58.745 0.00748596
58.78 -0.00686947
58.815 0.00381098
58.85 0.00568116
58.885 -0.000291259
58.92 9.51987e-05
58.955 0.00276299
58.99 0.0149581
59.025 -0.00427311
59.06 0.0114132
59.095 4.85808e-06
59.13 0.0153617
59.165 0.0109093
59.2 -0.00723105
59.235 0.00915999
59.27 0.0160363
59.305 -0.000583626
59.34 0.0148881
59.375 0.00292593
59.41 0.00854368
59.445 0.0113004
59.48 -0.00352789
59.515 -0.00358818
59.55 0.0109907
59.585 -0.00304906
59.62 0.0136001
59.655 0.019971
59.69 0.0218852
59.725 0.00231582
59.76 0.0117566
59.795 -0.00258309
59.83 0.00942046
59.865 -0.00329662
59.9 0.0119247
59.935 -0.000979217
59.97 -0.00510084
60.005 0.00173162
60.04 0.0107046
60.075 0.0153608
60.11 0.00144791
60.145 0.00769601
60.18 0.00926137
60.215 0.02475
60.25 0.0223906
60.285 0.0175921
60.32 0.00396695
60.355 0.00102596
60.39 0.00812612
60.425 -0.00573589
60.46 -0.00655253
60.495 0.0018466
60.53 0.00500941
60.565 0.00815281
60.6 -0.00429411
60.635 0.0099784
60.67 -0.00908309
60.705 0.00806842
60.74 0.00692392
60.775 -0.0167932
60.81 0.00185075
60.845 -0.00285713
60.88 0.000945292
60.915 -0.00901567
60.95 -0.00663933
60.985 0.000511079
61.02 -0.00486151
61.055 -0.00115192
61.09 -0.0108313
61.125 -0.00551461
61.16 -0.00640472
61.195 0.00742333
61.23 0.0195774
61.265 0.00990085
61.3 -0.0101848
61.335 0.0103145
61.37 0.00986636
61.405 -0.00474738
61.44 0.00252889
61.475 0.011052
61.51 -0.00400013
61.545 0.00781985
61.58 0.00170809
61.615 -0.0143248
61.65 0.00324954
61.685 -0.00287769
61.72 -0.0140072
61.755 -0.00534238
61.79 0.0121306
61.825 0.0111736
61.86 -0.0169704
61.895 0.0071008
61.93 -0.0109139
61.965 0.0139638
62 0.0161508
62.035 0.0135648
62.07 0.00582311
62.105 -0.00315853
62.14 0.00904528
62.175 0.00272368
62.21 -0.00242958
62.245 0.00787921
62.28 0.00789028
62.315 -0.005306
62.35 0.00166518
62.385 0.00876932
62.42 0.00833789
62.455 -0.00195882
62.49 -0.0045582
62.525 0.00655393
62.56 0.0102363
62.595 -0.0129953
62.63 -0.00344543
62.665 0.0130363
62.7 -0.000616389
62.735 0.00334825
62.77 0.000307421
62.805 -0.000238851
62.84 0.00808778
62.875 -0.00532453
62.91 0.00298951
62.945 0.00766111
62.98 0.000444962
63.015 0.0102725
63.05 0.0173628
63.085 0.00913288
63.12 -0.00204338
63.155 0.00463666
63.19 0.0160015
63.225 0.0105187
63.26 0.00368412
63.295 0.0100177
63.33 0.0145626
63.365 -0.00699668
63.4 0.00666306
63.435 0.00406678
63.47 0.00378275
63.505 -0.00352971
63.54 0.00761645
63.575 0.0097966
63.61 0.00658601
63.645 0.0126348
63.68 0.0157793
63.715 -0.00333246
63.75 0.00543171
63.785 0.00551027
63.82 0.0101079
63.855 0.0106797
63.89 0.0114055
63.925 0.0193595
63.96 0.00819717
63.995 -0.00487062
64.03 -0.00602454
64.065 0.00713861
64.1 -0.0080666
64.135 0.0066684
64.17 0.00242365
64.205 0.0164907
64.24 0.00010679
64.275 0.00349461
64.31 0.0105311
64.345 0.0195882
64.38 0.00182264
64.415 -0.000396574
64.45 0.00506466
64.485 0.00874988
64.52 -0.000846453
64.555 -0.00633466
64.59 0.00446893
64.625 -0.00113738
64.66 0.0100369
64.695 0.00316956
64.73 -0.00272175
64.765 0.0173075
64.8 -0.00705908
64.835 0.00176049
64.87 0.0239804
64.905 0.00972928
64.94 0.00670251
64.975 0.00826587
65.01 0.00853693
65.045 -0.0160281
65.08 -0.00258083
65.115 -0.00478884
65.15 0.0025846
65.185 -0.000658911
65.22 -0.00151141
65.255 0.00450356
65.29 -0.000830517
65.325 0.00175825
65.36 0.00241384
65.395 0.00360782
65.43 -0.00829309
65.465 -0.00329491
65.5 0.00177509
65.535 0.000835113
65.57 0.00791173
65.605 -0.00242531
65.64 -0.00610206
65.675 -0.0110055
65.71 0.00519163
65.745 -0.00275559
65.78 0.000171951
65.815 -0.0140182
65.85 -0.0160587