File: data/xrd/xy/2019-09-05T19_43_09.232228+00_00_LBL_A6.xy
'Id: "" Comment: "Integrate frame Morph_03_001.gfrmwith cursor Wedge Cursor #3" Operator: "UC Berkeley" Anode: "Co" Scantype: "TwoTheta" TimePerStep: "500"
13.835 -0.027791
13.875 -0.0100837
13.915 0.00134209
13.955 -0.00279363
13.995 0.00719108
14.035 0.0881784
14.075 0.0029963
14.115 0.0272182
14.155 -0.0018036
14.195 0.0662829
14.235 0.06526
14.275 0.0522146
14.315 -0.0080098
14.355 0.0218091
14.395 0.0638598
14.435 0.0656253
14.475 0.0414592
14.515 -0.00107536
14.555 0.0994932
14.595 -0.0216996
14.635 0.120756
14.675 0.0243606
14.715 0.0463321
14.755 0.0473243
14.795 0.103994
14.835 0.000120538
14.875 0.00867416
14.915 -0.00142246
14.955 0.0492773
14.995 0.072255
15.035 -0.0199221
15.075 0.0831743
15.115 0.0350465
15.155 0.0204354
15.195 0.0391282
15.235 0.0351994
15.275 0.0661955
15.315 0.0374366
15.355 0.0121764
15.395 0.0356946
15.435 -0.00240027
15.475 0.0325603
15.515 0.0475151
15.555 0.0309312
15.595 0.0307659
15.635 0.0805302
15.675 0.0825603
15.715 0.00899204
15.755 0.00526568
15.795 0.0134237
15.835 0.0366765
15.875 0.0290585
15.915 0.071302
15.955 0.0995688
15.995 0.156342
16.035 0.167135
16.075 0.0764773
16.115 0.114111
16.155 0.07005
16.195 0.0518566
16.235 0.0849373
16.275 0.0192001
16.315 0.0818535
16.355 0.0841647
16.395 0.096581
16.435 0.106171
16.475 0.15847
16.515 0.0724514
16.555 0.0243023
16.595 0.014584
16.635 0.0474416
16.675 0.0174638
16.715 0.0306621
16.755 0.00254104
16.795 0.0438662
16.835 0.089798
16.875 0.0145386
16.915 0.0747234
16.955 0.0769506
16.995 0.0473795
17.035 0.0551691
17.075 0.0599855
17.115 0.0140236
17.155 0.0529672
17.195 0.0484219
17.235 0.00681313
17.275 0.0462569
17.315 0.0263494
17.355 0.0129339
17.395 0.0547376
17.435 0.05636
17.475 0.138132
17.515 0.170716
17.555 0.255481
17.595 0.351651
17.635 0.358599
17.675 0.383078
17.715 0.306023
17.755 0.235036
17.795 0.169325
17.835 0.187506
17.875 0.15186
17.915 0.0770691
17.955 0.0736466
17.995 0.0497552
18.035 0.0554909
18.075 0.0523066
18.115 -0.0041985
18.155 0.0344258
18.195 0.0509361
18.235 0.0457491
18.275 0.0279842
18.315 0.0108302
18.355 0.0479752
18.395 0.043547
18.435 0.0288693
18.475 0.060643
18.515 -0.0215616
18.555 0.0317212
18.595 0.0583232
18.635 0.0792694
18.675 0.0626022
18.715 0.126421
18.755 0.0364105
18.795 0.0594694
18.835 0.0834841
18.875 0.0213341
18.915 -0.000951407
18.955 0.0046365
18.995 0.0158433
19.035 0.0417636
19.075 0.026191
19.115 0.0459813
19.155 0.0192963
19.195 0.032221
19.235 0.0126345
19.275 0.0263057
19.315 0.0405845
19.355 0.0615643
19.395 0.0804616
19.435 0.0244192
19.475 0.0438332
19.515 0.0711153
19.555 0.0865221
19.595 0.0323985
19.635 0.0568524
19.675 0.0272675
19.715 0.0724012
19.755 0.0397842
19.795 0.0225857
19.835 0.0658809
19.875 0.0768929
19.915 0.0395764
19.955 0.0477939
19.995 0.0234425
20.035 0.0387312
20.075 0.0176719
20.115 0.0796029
20.155 0.0718491
20.195 0.0360564
20.235 0.0536757
20.275 0.0652761
20.315 0.0428015
20.355 0.0717919
20.395 0.0124547
20.435 0.0481181
20.475 -0.0112324
20.515 -0.00147428
20.555 -0.0274121
20.595 0.018522
20.635 0.0607991
20.675 0.0290535
20.715 0.0644568
20.755 0.0348012
20.795 -0.00181886
20.835 0.00838509
20.875 0.0355256
20.915 0.0530716
20.955 0.0280314
20.995 0.00722422
21.035 0.0405034
21.075 0.0147664
21.115 0.0291131
21.155 0.0420152
21.195 -0.0145017
21.235 0.00655688
21.275 0.0501365
21.315 0.0446504
21.355 0.0469487
21.395 0.0630284
21.435 0.0285165
21.475 0.0281292
21.515 0.00216968
21.555 0.0762143
21.595 0.000117972
21.635 0.0337339
21.675 0.0424761
21.715 0.0570066
21.755 0.07768
21.795 0.0268719
21.835 0.082643
21.875 0.0811113
21.915 0.125111
21.955 0.0673236
21.995 0.100206
22.035 0.0835025
22.075 0.0288793
22.115 0.0235382
22.155 0.0152566
22.195 -0.00564008
22.235 0.0362086
22.275 0.00750718
22.315 0.011329
22.355 0.0299485
22.395 0.0357126
22.435 0.0568483
22.475 -0.00760844
22.515 -0.028969
22.555 0.0178614
22.595 0.00986136
22.635 0.0397754
22.675 -0.0134757
22.715 0.035802
22.755 0.0235198
22.795 0.00251761
22.835 0.0256176
22.875 -0.00470151
22.915 0.0387132
22.955 0.0203987
22.995 0.0345523
23.035 -0.0118363
23.075 0.0410414
23.115 0.0246081
23.155 0.0587212
23.195 0.0246724
23.235 0.0388531
23.275 -0.0218181
23.315 0.0463822
23.355 0.0147653
23.395 -0.0200483
23.435 0.0266079
23.475 -0.00436983
23.515 -0.00408038
23.555 0.00337548
23.595 0.00155451
23.635 0.0403
23.675 0.0471845
23.715 0.0136969
23.755 0.00891506
23.795 0.0346923
23.835 0.0166195
23.875 0.0289186
23.915 -0.00980326
23.955 0.0408505
23.995 0.0411058
24.035 0.0518074
24.075 0.0505761
24.115 0.000908203
24.155 0.0584731
24.195 0.035658
24.235 0.0587497
24.275 0.128922
24.315 0.0599426
24.355 0.0482784
24.395 0.0807712
24.435 0.0626152
24.475 0.0405284
24.515 0.0215621
24.555 0.0161483
24.595 0.0766169
24.635 -0.00352765
24.675 0.0374199
24.715 0.0345539
24.755 0.0218248
24.795 0.0140426
24.835 0.0599284
24.875 0.0149129
24.915 0.0316548
24.955 0.012732
24.995 0.0396259
25.035 0.0155631
25.075 0.0581325
25.115 0.0485135
25.155 0.089642
25.195 0.014942
25.235 0.0295023
25.275 0.0453202
25.315 0.0496443
25.355 0.0215282
25.395 0.0429632
25.435 0.0192004
25.475 0.000991794
25.515 -5.31778e-05
25.555 0.0540502
25.595 0.0147136
25.635 0.0339796
25.675 0.00215613
25.715 0.0312474
25.755 0.062655
25.795 0.0859668
25.835 0.0407424
25.875 0.0341807
25.915 0.0226865
25.955 0.0301272
25.995 0.0071856
26.035 0.0369775
26.075 0.0533199
26.115 0.0423643
26.155 0.096893
26.195 0.0695915
26.235 0.129364
26.275 0.165069
26.315 0.22107
26.355 0.484128
26.395 1.16946
26.435 2.74799
26.475 5.03783
26.515 7.05195
26.555 7.95187
26.595 6.61303
26.635 4.41242
26.675 2.21191
26.715 0.862208
26.755 0.359966
26.795 0.144999
26.835 0.120405
26.875 0.0991529
26.915 0.0630925
26.955 0.122364
26.995 0.211853
27.035 0.330012
27.075 0.374294
27.115 0.336965
27.155 0.288396
27.195 0.200388
27.235 0.106503
27.275 0.0990264
27.315 0.0504911
27.355 0.0666458
27.395 0.0375301
27.435 0.0482181
27.475 0.0222622
27.515 0.0518798
27.555 0.0112759
27.595 0.0429784
27.635 0.0186756
27.675 0.00864998
27.715 0.0191048
27.755 0.0646778
27.795 0.0267669
27.835 0.0233646
27.875 -0.0151801
27.915 0.0172354
27.955 0.049584
27.995 0.0667224
28.035 0.0543874
28.075 0.0237047
28.115 0.0744405
28.155 0.0494983
28.195 0.0695877
28.235 0.0566884
28.275 -0.00268989
28.315 -0.0233876
28.355 0.000557728
28.395 -0.0241338
28.435 0.0232946
28.475 0.0203802
28.515 0.0343024
28.555 0.0270732
28.595 0.0482211
28.635 0.0437344
28.675 0.0430601
28.715 0.026735
28.755 0.0443874
28.795 0.015663
28.835 0.0373472
28.875 0.0136257
28.915 0.0308731
28.955 0.0261382
28.995 0.0148608
29.035 -0.000911762
29.075 0.0159066
29.115 0.0607433
29.155 0.0246639
29.195 0.0275335
29.235 0.0558356
29.275 0.0566108
29.315 0.100101
29.355 0.0618895
29.395 0.073654
29.435 0.10209
29.475 0.0354744
29.515 0.0566175
29.555 0.0852517
29.595 0.040092
29.635 0.084636
29.675 0.0531643
29.715 0.0228271
29.755 0.0275496
29.795 0.0169858
29.835 -0.00161091
29.875 0.0220665
29.915 0.0099015
29.955 -0.00232314
29.995 0.0135871
30.035 0.0101811
30.075 0.0111861
30.115 0.00520343
30.155 0.00797909
30.195 0.0563898
30.235 0.0901096
30.275 0.10307
30.315 0.167179
30.355 0.178831
30.395 0.225174
30.435 0.146459
30.475 0.0886143
30.515 0.116338
30.555 0.0652589
30.595 0.0186832
30.635 -0.002268
30.675 0.00136829
30.715 0.0204953
30.755 0.0421078
30.795 -0.0256964
30.835 0.0229291
30.875 0.0183719
30.915 0.0232399
30.955 0.0206935
30.995 0.0119252
31.035 0.00857641
31.075 0.034153
31.115 0.00615685
31.155 0.0300916
31.195 0.00885021
31.235 0.0285971
31.275 0.0368136
31.315 0.0175491
31.355 0.00946515
31.395 0.033944
31.435 0.0274369
31.475 0.0215695
31.515 0.0426656
31.555 0.0478402
31.595 0.0205445
31.635 0.0493409
31.675 0.0378
31.715 0.00935751
31.755 0.0989793
31.795 0.130297
31.835 0.220641
31.875 0.385284
31.915 0.51689
31.955 0.535386
31.995 0.4643
32.035 0.368342
32.075 0.246263
32.115 0.0982566
32.155 0.0724498
32.195 0.0360443
32.235 0.0688684
32.275 0.0936233
32.315 0.159855
32.355 0.323153
32.395 0.620742
32.435 0.865504
32.475 1.08206
32.515 0.961164
32.555 0.710661
32.595 0.399599
32.635 0.166501
32.675 0.107137
32.715 0.0192539
32.755 0.0338652
32.795 0.0405225
32.835 0.112797
32.875 0.146495
32.915 0.221918
32.955 0.341037
32.995 0.376252
33.035 0.350274
33.075 0.294827
33.115 0.215052
33.155 0.133653
33.195 0.126093
33.235 0.0902199
33.275 0.0776755
33.315 0.0223561
33.355 0.0113766
33.395 0.0134946
33.435 0.0132761
33.475 0.0214758
33.515 -0.0200821
33.555 0.0240707
33.595 -0.00603093
33.635 -0.0248906
33.675 0.00767389
33.715 0.000727402
33.755 0.00405362
33.795 0.0262603
33.835 0.0138839
33.875 0.00823477
33.915 -0.0133381
33.955 -0.0157833
33.995 0.0113329
34.035 0.0182601
34.075 0.0134537
34.115 0.0467419
34.155 0.0716229
34.195 0.145954
34.235 0.291564
34.275 0.432216
34.315 0.560187
34.355 0.634559
34.395 0.587371
34.435 0.505532
34.475 0.372453
34.515 0.243
34.555 0.110229
34.595 0.0285293
34.635 -0.00217571
34.675 0.00722326
34.715 -0.0136688
34.755 -0.0195235
34.795 -0.00925313
34.835 -0.0182771
34.875 -0.00378165
34.915 0.0190436
34.955 0.0134916
34.995 0.0167478
35.035 0.0459643
35.075 0.0766406
35.115 0.114739
35.155 0.194415
35.195 0.229209
35.235 0.283355
35.275 0.273535
35.315 0.286318
35.355 0.276515
35.395 0.358363
35.435 0.568446
35.475 1.00189
35.515 2.0471
35.555 3.66948
35.595 5.69726
35.635 7.20175
35.675 7.36622
35.715 6.24182
35.755 4.31465
35.795 2.5536
35.835 1.44844
35.875 0.866666
35.915 0.638749
35.955 0.617507
35.995 0.514672
36.035 0.417772
36.075 0.322286
36.115 0.216928
36.155 0.146958
36.195 0.0808695
36.235 0.0456889
36.275 0.039764
36.315 0.0115716
36.355 0.00372088
36.395 -0.0133972
36.435 0.0172623
36.475 -0.00948042
36.515 -0.015796
36.555 -0.00410461
36.595 -0.00252901
36.635 0.0154226
36.675 0.0188695
36.715 -0.00635187
36.755 0.0236194
36.795 0.00278983
36.835 0.0124307
36.875 0.02762
36.915 0.0129781
36.955 -0.0112666
36.995 0.00208216
37.035 -0.0111743
37.075 -0.0147676
37.115 -0.0136907
37.155 -0.0196893
37.195 -0.0175483
37.235 -0.0135075
37.275 -0.0134917
37.315 -0.0230193
37.355 0.0233342
37.395 0.0163835
37.435 0.0529278
37.475 0.030665
37.515 0.055711
37.555 0.0525259
37.595 0.106878
37.635 0.0885431
37.675 0.0788832
37.715 0.0765318
37.755 0.0885917
37.795 0.0864487
37.835 0.0669359
37.875 0.0402845
37.915 0.0293044
37.955 0.0258597
37.995 -0.0118011
38.035 0.0144685
38.075 -1.08192e-05
38.115 0.00466492
38.155 0.016685
38.195 0.0193699
38.235 0.0829171
38.275 0.130894
38.315 0.240392
38.355 0.38998
38.395 0.581138
38.435 0.73622
38.475 0.866248
38.515 0.800637
38.555 0.600422
38.595 0.395329
38.635 0.220603
38.675 0.125032
38.715 0.0481382
38.755 0.00984491
38.795 0.0380487
38.835 0.00222348
38.875 -0.0198702
38.915 -0.0119822
38.955 -0.00141705
38.995 5.23107e-05
39.035 -0.0160884
39.075 -0.0214777
39.115 -0.000428259
39.155 -0.00063955
39.195 0.00443258
39.235 0.0259011
39.275 0.0368459
39.315 0.061652
39.355 0.0827228
39.395 0.081396
39.435 0.0595967
39.475 0.0612
39.515 0.0160342
39.555 0.0139968
39.595 0.00394459
39.635 0.0239479
39.675 -0.0007758
39.715 0.009405
39.755 0.00973327
39.795 0.0183433
39.835 0.00609046
39.875 0.027672
39.915 0.00486842
39.955 0.0525398
39.995 0.075312
40.035 0.148908
40.075 0.197743
40.115 0.271668
40.155 0.29014
40.195 0.317648
40.235 0.268144
40.275 0.174983
40.315 0.139173
40.355 0.102629
40.395 0.0633978
40.435 0.100885
40.475 0.163927
40.515 0.221839
40.555 0.322861
40.595 0.337612
40.635 0.329507
40.675 0.273844
40.715 0.219415
40.755 0.146544
40.795 0.0762392
40.835 0.043592
40.875 0.0407161
40.915 0.0136214
40.955 0.00174066
40.995 0.0106463
41.035 -0.00786749
41.075 0.0222496
41.115 0.00541164
41.155 0.0237318
41.195 0.00195294
41.235 0.0057547
41.275 0.0166715
41.315 0.0177837
41.355 0.00771164
41.395 0.0174091
41.435 0.0192514
41.475 -0.0179709
41.515 0.00636098
41.555 -0.00172421
41.595 -0.0136856
41.635 0.037187
41.675 -0.00914672
41.715 0.0165799
41.755 -0.00445125
41.795 0.00897022
41.835 -0.0129094
41.875 -0.0084897
41.915 0.0122167
41.955 -0.0113185
41.995 0.0146066
42.035 0.0083098
42.075 0.0229302
42.115 -0.00601651
42.155 0.0232016
42.195 0.0117902
42.235 -0.0025863
42.275 0.0139663
42.315 -0.00767563
42.355 -0.0122933
42.395 -0.0142301
42.435 0.00255655
42.475 0.00114771
42.515 0.0195152
42.555 0.0109488
42.595 0.0407914
42.635 0.096914
42.675 0.0725904
42.715 0.0767031
42.755 0.0852603
42.795 0.085763
42.835 0.076141
42.875 0.0381796
42.915 0.0463697
42.955 -0.00420031
42.995 0.00172915
43.035 -0.00891079
43.075 0.00134582
43.115 0.0194072
43.155 0.0142531
43.195 -0.00838001
43.235 -0.00126105
43.275 0.00367648
43.315 0.0591567
43.355 0.0151393
43.395 0.0216363
43.435 0.0561979
43.475 0.0824338
43.515 0.0975397
43.555 0.0813494
43.595 0.0564058
43.635 0.0864079
43.675 0.0113702
43.715 0.0400579
43.755 0.00414562
43.795 0.0100358
43.835 -0.0031539
43.875 0.0204631
43.915 0.0240488
43.955 0.0487542
43.995 0.0813642
44.035 0.140379
44.075 0.215425
44.115 0.343815
44.155 0.439786
44.195 0.472156
44.235 0.365661
44.275 0.256378
44.315 0.140266
44.355 0.098533
44.395 0.083429
44.435 0.0796934
44.475 0.0651378
44.515 0.0588017
44.555 0.0504038
44.595 0.0278195
44.635 0.0839057
44.675 0.0839186
44.715 0.101588
44.755 0.139621
44.795 0.1921
44.835 0.227997
44.875 0.380021
44.915 0.515483
44.955 0.596214
44.995 0.66544
45.035 0.643325
45.075 0.605922
45.115 0.445876
45.155 0.303271
45.195 0.20891
45.235 0.109216
45.275 0.0642951
45.315 0.0333796
45.355 -0.0212526
45.395 0.00604155
45.435 0.00718261
45.475 0.00413627
45.515 -0.000231894
45.555 0.00232949
45.595 0.0120331
45.635 0.0317769
45.675 0.0405792
45.715 0.0671509
45.755 0.0731371
45.795 0.0828866
45.835 0.0602605
45.875 0.0364177
45.915 0.0101853
45.955 0.0194613
45.995 0.0196729
46.035 -0.0119654
46.075 -0.00507097
46.115 0.0109542
46.155 -0.0116763
46.195 0.0111743
46.235 0.0341335
46.275 0.0418674
46.315 0.0690957
46.355 0.0887895
46.395 0.0847998
46.435 0.0725339
46.475 0.0516272
46.515 0.0603638
46.555 0.0473414
46.595 0.0614885
46.635 0.110506
46.675 0.156022
46.715 0.238267
46.755 0.364048
46.795 0.507726
46.835 0.577722
46.875 0.56264
46.915 0.553916
46.955 0.467208
46.995 0.351401
47.035 0.244999
47.075 0.160958
47.115 0.0922671
47.155 0.0699471
47.195 0.0611359
47.235 0.0419582
47.275 0.027562
47.315 0.0199619
47.355 0.0117827
47.395 0.0232983
47.435 0.0438627
47.475 0.0409733
47.515 0.046478
47.555 0.0229391
47.595 0.0391584
47.635 0.0127347
47.675 0.015095
47.715 0.0250473
47.755 0.00368553
47.795 -0.00283484
47.835 -0.0155336
47.875 -0.00439885
47.915 -0.00928667
47.955 0.00112144
47.995 -0.00155063
48.035 -0.00425433
48.075 -0.00283074
48.115 -0.00892643
48.155 0.0264984
48.195 0.0413161
48.235 0.0768502
48.275 0.104876
48.315 0.0984074
48.355 0.0974559
48.395 0.114207
48.435 0.0590551
48.475 0.0538466
48.515 0.0406192
48.555 0.0396422
48.595 0.0336162
48.635 0.0543656
48.675 0.0553233
48.715 0.072052
48.755 0.0829493
48.795 0.108902
48.835 0.120853
48.875 0.125665
48.915 0.124662
48.955 0.102863
48.995 0.0659498
49.035 0.0746428
49.075 0.0537406
49.115 0.0470831
49.155 0.043685
49.195 0.0244697
49.235 0.0148854
49.275 0.00424579
49.315 0.0083754
49.355 0.0249428
49.395 0.035877
49.435 0.0639115
49.475 0.0776567
49.515 0.0977285
49.555 0.109002
49.595 0.0842975
49.635 0.101157
49.675 0.0407023
49.715 0.0483787
49.755 0.0553327
49.795 0.0529396
49.835 0.0589211
49.875 0.0829609
49.915 0.108709
49.955 0.0888837
49.995 0.0965224
50.035 0.120909
50.075 0.107516
50.115 0.0831671
50.155 0.0730917
50.195 0.0639335
50.235 0.0205329
50.275 0.0172864
50.315 0.00669601
50.355 0.00258956
50.395 0.0040217
50.435 -0.012722
50.475 0.00262847
50.515 0.00942759
50.555 -0.00993304
50.595 -0.00243776
50.635 0.00572403
50.675 0.000638946
50.715 0.0159785
50.755 0.0130676
50.795 0.0389198
50.835 0.059247
50.875 0.0799474
50.915 0.164997
50.955 0.194148
50.995 0.255117
51.035 0.252322
51.075 0.229473
51.115 0.197336
51.155 0.175448
51.195 0.137416
51.235 0.0821835
51.275 0.0779765
51.315 0.0471302
51.355 0.0238704
51.395 0.00227173
51.435 -0.00903744
51.475 -0.00895734
51.515 -0.010889
51.555 -0.0048225
51.595 0.00588091
51.635 0.0141814
51.675 0.0243346
51.715 0.0288565
51.755 0.00905179
51.795 0.0279027
51.835 0.0302295
51.875 0.0456791
51.915 0.0591228
51.955 0.0434346
51.995 0.0437658
52.035 0.0406782
52.075 0.0471173
52.115 0.0522963
52.155 0.0744813
52.195 0.0997714
52.235 0.102117
52.275 0.11298
52.315 0.134593
52.355 0.113459
52.395 0.11534
52.435 0.0910788
52.475 0.0650583
52.515 0.0455546
52.555 0.0169036
52.595 0.0142697
52.635 -0.00838527
52.675 0.00594547
52.715 -0.0125448
52.755 -0.0179854
52.795 -0.00345115
52.835 -0.0129072
52.875 -0.0141569
52.915 -0.01423
52.955 -0.00967009
52.995 -0.00179994
53.035 -0.0133937
53.075 -0.000512734
53.115 0.0127979
53.155 -0.00484588
53.195 -0.00767426
53.235 7.08186e-05
53.275 -0.0022727
53.315 0.022844
53.355 -0.00463078
53.395 -2.15946e-05
53.435 0.00837998
53.475 -0.000526492
53.515 0.0130561
53.555 0.00520715
53.595 0.00494064
53.635 -0.00273309
53.675 -0.000562742
53.715 0.0135225
53.755 -0.0149417
53.795 -0.0169423
53.835 -0.0126332
53.875 0.00745924
53.915 0.00891554
53.955 0.0268022
53.995 0.0545689
54.035 0.0653865
54.075 0.0730144
54.115 0.101608
54.155 0.0993852
54.195 0.092059
54.235 0.0794065
54.275 0.042175
54.315 0.023256
54.355 0.0316136
54.395 0.0150577
54.435 0.00565741
54.475 0.0341122
54.515 0.0569528
54.555 0.0621544
54.595 0.0751982
54.635 0.0951425
54.675 0.106152
54.715 0.110756
54.755 0.105465
54.795 0.111877
54.835 0.119763
54.875 0.0840935
54.915 0.0573826
54.955 0.0199099
54.995 0.0130703
55.035 -0.0151252
55.075 0.00412485
55.115 -0.0126018
55.155 -0.00162513
55.195 0.00783077
55.235 -0.00463083
55.275 -0.00599711
55.315 0.0300023
55.355 0.0314423
55.395 0.0687882
55.435 0.0525708
55.475 0.060482
55.515 0.0798073
55.555 0.0911358
55.595 0.161376
55.635 0.236261
55.675 0.361992
55.715 0.488273
55.755 0.586658
55.795 0.592334
55.835 0.573016
55.875 0.512564
55.915 0.378916
55.955 0.320431
55.995 0.253531
56.035 0.187086
56.075 0.132155
56.115 0.124396
56.155 0.0663467
56.195 0.0482221
56.235 0.043631
56.275 0.0308163
56.315 0.0283203
56.355 0.013459
56.395 0.0204312
56.435 0.00876536
56.475 0.00396016
56.515 -0.0106036
56.555 0.0130137
56.595 0.00322129
56.635 0.00174786
56.675 -0.0108469
56.715 0.0134539
56.755 -0.000958546
56.795 -0.0174419
56.835 0.00418303
56.875 0.000938229
56.915 -0.0130922
56.955 0.0135502
56.995 0.00300604
57.035 -0.0179884
57.075 -0.00398364
57.115 0.0217762
57.155 0.00297914
57.195 -0.0175579
57.235 -0.00336938
57.275 0.00982395
57.315 0.0106654
57.355 0.0145547
57.395 0.00463863
57.435 0.00469318
57.475 0.0305945
57.515 0.00425215
57.555 0.0322053
57.595 0.0448949
57.635 0.0687751
57.675 0.0563832
57.715 0.0935257
57.755 0.0827716
57.795 0.0950302
57.835 0.0884579
57.875 0.102286
57.915 0.0852676
57.955 0.0821761
57.995 0.0890656
58.035 0.0681349
58.075 0.0748683
58.115 0.0846638
58.155 0.0767337
58.195 0.0920231
58.235 0.0885335
58.275 0.0761597
58.315 0.080461
58.355 0.0820463
58.395 0.0610234
58.435 0.0673636
58.475 0.0571856
58.515 0.0659419
58.555 0.0559952
58.595 0.0299419
58.635 0.0279575
58.675 0.0387614
58.715 0.0261195
58.755 0.0106397
58.795 0.0169398
58.835 0.00843107
58.875 0.0169572
58.915 0.04852
58.955 0.0198764
58.995 0.0330009
59.035 0.00958925
59.075 0.0243528
59.115 0.0298254
59.155 0.0180658
59.195 0.0210887
59.235 0.0194652
59.275 0.00704331
59.315 -0.0176098
59.355 -0.00138269
59.395 -0.00491067
59.435 -0.000197424
59.475 0.000342712
59.515 0.00252595
59.555 0.012445
59.595 -0.000379112
59.635 -0.00286953
59.675 0.0120243
59.715 0.0229303
59.755 0.0131772
59.795 0.00970933
59.835 0.0187119
59.875 0.0115484
59.915 0.00997682
59.955 -0.00372322
59.995 0.0210709
60.035 -0.00961918
60.075 0.0139489
60.115 0.0087992
60.155 -0.0173367
60.195 0.00211672
60.235 0.011529
60.275 0.00783189
60.315 0.00990068
60.355 -0.0144616
60.395 0.00702933
60.435 0.00278722
60.475 -0.00400326
60.515 0.0229262
60.555 0.0105227
60.595 -0.00452625
60.635 0.00577925
60.675 0.0273593
60.715 0.0301735
60.755 0.0374561
60.795 0.0492901
60.835 0.03823
60.875 0.0618055
60.915 0.0271384
60.955 0.0588879
60.995 0.0519988
61.035 0.0443026
61.075 0.0604584
61.115 0.0541093
61.155 0.0824834
61.195 0.085087
61.235 0.120956
61.275 0.118319
61.315 0.134109
61.355 0.171458
61.395 0.163901
61.435 0.17
61.475 0.181973
61.515 0.166721
61.555 0.125722
61.595 0.109978
61.635 0.0853653
61.675 0.0654618
61.715 0.0579551
61.755 0.0318398
61.795 0.0251628
61.835 0.0216801
61.875 0.0126864
61.915 -0.0135631
61.955 -0.00702376
61.995 0.0251823
62.035 0.00048523
62.075 0.0227223
62.115 0.0280419
62.155 0.046556
62.195 0.0495778
62.235 0.0610455
62.275 0.0613898
62.315 0.0696159
62.355 0.0739375
62.395 0.0738896
62.435 0.0432196
62.475 0.0513905
62.515 0.041269
62.555 0.0462104
62.595 0.0583436
62.635 0.0179712
62.675 0.0073554
62.715 0.024077
62.755 0.0415831
62.795 0.0289578
62.835 -0.00108371
62.875 0.00636577
62.915 0.00905317
62.955 0.0164249
62.995 0.0161987
63.035 0.0461421
63.075 0.0542232
63.115 0.0733537
63.155 0.0913283
63.195 0.121654
63.235 0.118871
63.275 0.0982466
63.315 0.107099
63.355 0.0922407
63.395 0.0906873
63.435 0.0697379
63.475 0.0586948
63.515 0.0648477
63.555 0.0585095
63.595 0.0633946
63.635 0.0722679
63.675 0.0557303
63.715 0.0409403
63.755 0.0264577
63.795 0.0387323
63.835 0.0122955
63.875 0.00332429
63.915 0.00458725
63.955 0.0135048
63.995 -0.00757804
64.035 0.00072887
64.075 0.0201897
64.115 -2.65377e-05
64.155 0.0152374
64.195 0.00893659
64.235 0.0348531
64.275 0.0211313
64.315 0.0231444
64.355 0.034957
64.395 0.0403244
64.435 0.0390488
64.475 0.0489993
64.515 0.0525672
64.555 0.090101
64.595 0.145719
64.635 0.194754
64.675 0.267977
64.715 0.333964
64.755 0.412948
64.795 0.473579
64.835 0.551095
64.875 0.699993
64.915 0.786303
64.955 0.821872
64.995 0.646638
65.035 0.53135
65.075 0.413169
65.115 0.274598
65.155 0.172998
65.195 0.106868
65.235 0.0742553
65.275 0.019199
65.315 0.0246308
65.355 -0.00354781
65.395 -0.00299179
65.435 -0.0107073
65.475 0.00769264
65.515 -0.00753266
65.555 0.00516744
65.595 0.0231422
65.635 -0.00117905
65.675 -0.00859842
65.715 -0.00463119
65.755 -0.00995093
65.795 -0.000564563
65.835 0.00223345
65.875 0.014533
65.915 0.0176693
65.955 0.0365683
65.995 0.0588517
66.035 0.0613685
66.075 0.0643345
66.115 0.0789878
66.155 0.0843046
66.195 0.0747968
66.235 0.10252
66.275 0.100935
66.315 0.0989228
66.355 0.11557
66.395 0.0971155
66.435 0.0714173
66.475 0.0317617
66.515 0.0306242
66.555 0.0305618
66.595 0.0235184
66.635 0.0186956
66.675 -0.00792739
66.715 0.00890191
66.755 -0.0146419
66.795 0.00211598
66.835 0.00207135
66.875 0.00222
66.915 0.00455523
66.955 0.00385263
66.995 0.0140101
67.035 0.00952118
67.075 0.0170765
67.115 0.0315709
67.155 0.0301905
67.195 0.0226491
67.235 0.0230611
67.275 0.00535702
67.315 0.0322167
67.355 0.00971361
67.395 0.0238282
67.435 0.0230232
67.475 0.0122691
67.515 0.004307
67.555 0.0398534
67.595 0.039708
67.635 0.0455557
67.675 0.0604397
67.715 0.0617541
67.755 0.0467309
67.795 0.047554
67.835 0.0793306
67.875 0.0791154
67.915 0.090819
67.955 0.084458
67.995 0.124782
68.035 0.104967
68.075 0.154278
68.115 0.175949
68.155 0.190868
68.195 0.173416
68.235 0.188931
68.275 0.188499
68.315 0.176371
68.355 0.161714
68.395 0.12481
68.435 0.0947082
68.475 0.0572052
68.515 0.052196
68.555 0.0590757
68.595 0.0258179
68.635 0.0312452
68.675 0.0304859
68.715 0.028273
68.755 0.0223302
68.795 0.0207387
68.835 0.00423959
68.875 -0.0126662
68.915 0.00579622
68.955 -0.00177935
68.995 -0.00288893
69.035 0.000405656
69.075 -0.00265904
69.115 0.0066623
69.155 0.00971011
69.195 -0.00395286
69.235 0.014261
69.275 0.0012702
69.315 -0.0120525
69.355 -0.0104092
69.395 -0.000598826
69.435 0.0384544
69.475 0.0455678
69.515 0.0163305
69.555 0.0337578
69.595 0.0235581
69.635 0.030509
69.675 0.0341388
69.715 0.0163394
69.755 0.0242155
69.795 0.0213302
69.835 0.0365944
69.875 0.0289587
69.915 0.0224003
69.955 0.0134552
69.995 0.00653069
70.035 0.0128046
70.075 -0.00187214
70.115 0.00854184
70.155 0.0192334
70.195 0.00886596
70.235 -0.0109201
70.275 -0.00119187
70.315 0.0142304
70.355 0.0182743
70.395 0.0125117
70.435 0.00170648
70.475 0.0058864
70.515 -0.000552573
70.555 -0.00203803
70.595 -0.00876321
70.635 0.0149513
70.675 0.0193063
70.715 -0.00702311
70.755 -0.00203686
70.795 -0.0108757
70.835 0.000119434
70.875 0.012745
70.915 0.00712436
70.955 0.00991304
70.995 0.0262577
71.035 0.0321441
71.075 0.0234808
71.115 0.0731641
71.155 0.0880655
71.195 0.0969095
71.235 0.150191
71.275 0.188404
71.315 0.22185
71.355 0.259166
71.395 0.267484
71.435 0.289017
71.475 0.26902
71.515 0.252676
71.555 0.251758
71.595 0.277378
71.635 0.23103
71.675 0.260395
71.715 0.267015
71.755 0.188033
71.795 0.168684
71.835 0.114613
71.875 0.0694832
71.915 0.0674742
71.955 0.066333
71.995 0.0604331
72.035 0.0757501
72.075 0.0618669
72.115 0.0726005
72.155 0.0560076
72.195 0.0562595
72.235 0.0323253
72.275 0.0105315
72.315 0.0273628
72.355 -0.000706261
72.395 0.0171445
72.435 0.00180297
72.475 0.0213674
72.515 0.0183435
72.555 -0.0159381
72.595 0.0130193
72.635 0.0120797
72.675 0.000550383
72.715 0.00171546
72.755 -0.00267216
72.795 0.0157321
72.835 0.0405532
72.875 0.0250785
72.915 0.0182106
72.955 0.0160694
72.995 0.0108252
73.035 0.00147031
73.075 0.0217729
73.115 0.00589557
73.15 -0.0168709