File: data/xrd/xy/2019-09-12T19_30_45.894318+00_00_LBL_B12.xy
'Id: "" Comment: "Integrate frame nhexyl1_00_003.gfrmwith cursor Wedge Cursor #1" Operator: "UC Berkeley" Anode: "Co" Scantype: "TwoTheta" TimePerStep: "600"
13.655 -0.0249823
13.695 0.00544116
13.735 -0.024023
13.775 -0.010966
13.815 0.0217239
13.855 0.0156773
13.895 0.0052047
13.935 0.0271687
13.975 0.0245227
14.015 0.0331738
14.055 0.018246
14.095 0.0152672
14.135 0.0184152
14.175 0.0237194
14.215 0.0435645
14.255 0.0531293
14.295 0.0194473
14.335 0.0449925
14.375 0.00365131
14.415 0.0318559
14.455 0.044761
14.495 0.0605415
14.535 0.0157602
14.575 0.0310851
14.615 0.0426787
14.655 0.0207264
14.695 0.0377759
14.735 0.0155476
14.775 -0.00527402
14.815 0.0324391
14.855 0.0260397
14.895 0.0366957
14.935 -0.00237864
14.975 0.05127
15.015 0.0462016
15.055 0.0335892
15.095 0.0552603
15.135 0.00365888
15.175 0.00863729
15.215 0.0389919
15.255 0.0403639
15.295 0.0586096
15.335 0.0181411
15.375 0.019558
15.415 0.0213102
15.455 0.00816265
15.495 -0.0190632
15.535 0.028663
15.575 0.0161701
15.615 0.0729443
15.655 0.0292774
15.695 0.0394463
15.735 0.0443927
15.775 0.0302531
15.815 0.0334025
15.855 0.00427608
15.895 0.0455019
15.935 0.00218796
15.975 0.0231544
16.015 -0.0186109
16.055 -0.0112536
16.095 -0.0139849
16.135 0.00339472
16.175 -0.00468387
16.215 0.0096955
16.255 -0.000382217
16.295 0.0319078
16.335 -0.00129102
16.375 0.0466034
16.415 0.0606802
16.455 0.014557
16.495 0.0596216
16.535 0.0737205
16.575 -0.0182745
16.615 -0.00568168
16.655 0.0290741
16.695 0.0197874
16.735 0.0173355
16.775 0.0197829
16.815 0.0223274
16.855 0.0090007
16.895 0.00144491
16.935 0.0514345
16.975 0.0210192
17.015 -0.00135527
17.055 0.0452752
17.095 0.037787
17.135 0.0490448
17.175 -0.00403443
17.215 0.0423407
17.255 0.0286376
17.295 0.0629795
17.335 0.0519344
17.375 0.0344438
17.415 0.0141538
17.455 0.0106398
17.495 -0.00724132
17.535 0.0241667
17.575 0.057061
17.615 0.0619811
17.655 0.0253007
17.695 -0.0267932
17.735 0.0589249
17.775 0.0579649
17.815 0.0416702
17.855 0.0560405
17.895 0.0370485
17.935 0.0172972
17.975 0.0315191
18.015 0.0187445
18.055 0.0588717
18.095 0.0391782
18.135 -0.00189891
18.175 0.0345881
18.215 0.0240039
18.255 0.0201475
18.295 0.0162964
18.335 0.0225157
18.375 0.0240865
18.415 0.0168947
18.455 0.0414215
18.495 0.0598568
18.535 0.0258459
18.575 0.0485008
18.615 0.0662499
18.655 0.0970536
18.695 0.221136
18.735 0.34778
18.775 0.603126
18.815 0.917528
18.855 1.07784
18.895 1.09489
18.935 0.932176
18.975 0.591858
19.015 0.315774
19.055 0.11503
19.095 0.0355823
19.135 0.0048198
19.175 0.0542288
19.215 0.0445341
19.255 0.0594967
19.295 0.0376544
19.335 0.0594728
19.375 0.00100084
19.415 0.0092132
19.455 0.00618683
19.495 0.0201027
19.535 0.0529689
19.575 0.0168761
19.615 0.0139755
19.655 -0.0208771
19.695 0.0454638
19.735 -0.0146276
19.775 0.0533886
19.815 -0.0037775
19.855 0.0486798
19.895 0.0171973
19.935 0.0743729
19.975 0.0277555
20.015 0.0165714
20.055 0.00654034
20.095 0.0532696
20.135 -0.00743273
20.175 0.0147408
20.215 0.01621
20.255 0.0789982
20.295 0.0494014
20.335 -0.0018864
20.375 0.0106336
20.415 -0.00841504
20.455 0.00109399
20.495 -0.00100142
20.535 0.0331106
20.575 0.0402956
20.615 0.0211058
20.655 0.0389686
20.695 -0.0251771
20.735 0.00614688
20.775 0.0240537
20.815 0.0163457
20.855 0.0205373
20.895 0.021875
20.935 0.0141137
20.975 0.0138814
21.015 -0.00306293
21.055 0.0500515
21.095 0.00573228
21.135 0.029437
21.175 0.0403135
21.215 0.0348189
21.255 0.0265139
21.295 0.00588464
21.335 0.0338919
21.375 -0.00450298
21.415 0.0348703
21.455 0.0109336
21.495 -0.0276205
21.535 -0.00284032
21.575 0.000880058
21.615 0.0385172
21.655 0.0180282
21.695 0.050242
21.735 0.0163528
21.775 0.0211117
21.815 0.0451631
21.855 0.0118612
21.895 0.0303278
21.935 0.0169881
21.975 0.0395149
22.015 0.0294826
22.055 0.0543086
22.095 0.0509889
22.135 0.0801165
22.175 0.0859562
22.215 0.0144742
22.255 0.0638295
22.295 0.0513426
22.335 0.0131992
22.375 0.0313852
22.415 0.0402259
22.455 0.0560088
22.495 0.0644433
22.535 -0.00589385
22.575 0.0330271
22.615 0.0187978
22.655 0.0181337
22.695 0.0545999
22.735 0.0522118
22.775 0.0725963
22.815 0.0605405
22.855 0.0340264
22.895 0.030649
22.935 -0.030196
22.975 0.053712
23.015 0.0589712
23.055 0.0632908
23.095 0.0692003
23.135 0.052577
23.175 0.0334457
23.215 0.0515018
23.255 0.0382325
23.295 0.0309985
23.335 0.0394847
23.375 0.00119711
23.415 0.00258083
23.455 0.0398198
23.495 0.0151436
23.535 0.0105939
23.575 0.0465442
23.615 0.0649672
23.655 0.0301736
23.695 0.0279713
23.735 0.0478373
23.775 0.033227
23.815 0.0449319
23.855 0.00105271
23.895 0.024784
23.935 -0.0140926
23.975 0.0412214
24.015 0.0917965
24.055 0.0527272
24.095 0.0429967
24.135 0.0465082
24.175 0.0173387
24.215 0.0552804
24.255 0.0708091
24.295 0.0193741
24.335 0.0488844
24.375 0.0908195
24.415 0.0495818
24.455 0.110479
24.495 0.075713
24.535 0.0892369
24.575 0.0815667
24.615 0.0361758
24.655 0.0820778
24.695 0.109971
24.735 0.131552
24.775 0.17742
24.815 0.236264
24.855 0.23199
24.895 0.314842
24.935 0.376849
24.975 0.468144
25.015 0.76189
25.055 1.29738
25.095 2.8609
25.135 6.34402
25.175 12.0315
25.215 18.257
25.255 22.146
25.295 21.0566
25.335 15.4597
25.375 9.24613
25.415 4.40494
25.455 2.08657
25.495 0.893091
25.535 0.522839
25.575 0.403266
25.615 0.272689
25.655 0.260926
25.695 0.197782
25.735 0.172092
25.775 0.178513
25.815 0.15102
25.855 0.151896
25.895 0.129443
25.935 0.0994746
25.975 0.109443
26.015 0.0949355
26.055 0.114479
26.095 0.129907
26.135 0.0917991
26.175 0.0697803
26.215 0.094521
26.255 0.123166
26.295 0.156541
26.335 0.102446
26.375 0.0982974
26.415 0.127049
26.455 0.0664079
26.495 0.0865391
26.535 0.092925
26.575 0.0708932
26.615 0.0664983
26.655 0.0497789
26.695 0.0570468
26.735 0.0262037
26.775 0.0494816
26.815 0.0311066
26.855 0.0571366
26.895 0.0372101
26.935 0.0469771
26.975 0.0656271
27.015 0.039184
27.055 0.061358
27.095 0.0704282
27.135 0.00932319
27.175 0.073983
27.215 0.0132105
27.255 0.0536693
27.295 0.0582001
27.335 0.029489
27.375 0.020431
27.415 0.0449903
27.455 0.0592308
27.495 0.0212955
27.535 0.0519822
27.575 0.0411264
27.615 0.0241344
27.655 0.0500964
27.695 0.079599
27.735 0.0530281
27.775 0.0949055
27.815 0.0370628
27.855 0.0637638
27.895 0.106967
27.935 0.00996159
27.975 0.0681196
28.015 0.0503805
28.055 0.0189616
28.095 0.0305222
28.135 0.0645102
28.175 0.0528558
28.215 0.00596719
28.255 0.00460809
28.295 0.0249882
28.335 0.0319251
28.375 -0.00860362
28.415 0.0018173
28.455 0.0542548
28.495 -0.023174
28.535 0.0153937
28.575 0.00186155
28.615 0.0123788
28.655 0.00631756
28.695 -0.00798779
28.735 2.22727e-05
28.775 0.00485739
28.815 0.029918
28.855 0.0185399
28.895 0.036846
28.935 0.0189851
28.975 0.00743373
29.015 0.010735
29.055 0.0391904
29.095 0.0334306
29.135 0.0524658
29.175 0.00156079
29.215 0.0223753
29.255 0.0337465
29.295 0.00228035
29.335 -0.00768203
29.375 0.0304766
29.415 0.0134587
29.455 0.0243046
29.495 0.0290223
29.535 -0.0127266
29.575 -0.00100411
29.615 0.00136668
29.655 4.06543e-05
29.695 0.0184986
29.735 0.0425962
29.775 0.0161469
29.815 -0.0235599
29.855 0.0328483
29.895 0.0162005
29.935 0.0346282
29.975 0.0180927
30.015 0.0013444
30.055 -0.0160329
30.095 0.0187452
30.135 -0.0177494
30.175 -0.0114821
30.215 0.0231645
30.255 -0.00661671
30.295 0.0262954
30.335 0.0217584
30.375 -0.0107948
30.415 0.0218791
30.455 0.0422229
30.495 0.0415756
30.535 0.0211773
30.575 0.026471
30.615 0.0601946
30.655 0.0621828
30.695 0.0155521
30.735 0.0605701
30.775 0.07024
30.815 0.0911942
30.855 0.0926544
30.895 0.0913281
30.935 0.0999197
30.975 0.147572
31.015 0.15604
31.055 0.173231
31.095 0.229633
31.135 0.224779
31.175 0.288775
31.215 0.304627
31.255 0.37299
31.295 0.433842
31.335 0.552639
31.375 0.659052
31.415 0.79318
31.455 1.05654
31.495 1.57762
31.535 2.71884
31.575 5.6162
31.615 12.3402
31.655 22.982
31.695 33.9005
31.735 39.2602
31.775 33.7382
31.815 24.2739
31.855 14.3803
31.895 7.43166
31.935 3.81879
31.975 1.95102
32.015 1.14991
32.055 0.802722
32.095 0.581886
32.135 0.462719
32.175 0.432255
32.215 0.348447
32.255 0.306156
32.295 0.258707
32.335 0.219762
32.375 0.236452
32.415 0.15752
32.455 0.172216
32.495 0.146909
32.535 0.112728
32.575 0.083176
32.615 0.0708998
32.655 0.0460473
32.695 0.0823855
32.735 0.0271434
32.775 0.0550447
32.815 0.0416625
32.855 0.0508955
32.895 0.0436626
32.935 0.0763729
32.975 0.0745908
33.015 0.120352
33.055 0.10715
33.095 0.0867339
33.135 0.0781095
33.175 0.0669423
33.215 0.0607997
33.255 0.0707181
33.295 0.0764325
33.335 0.0967924
33.375 0.0838891
33.415 0.0565076
33.455 0.0339604
33.495 0.0255053
33.535 0.0377687
33.575 0.0338572
33.615 0.0143116
33.655 0.0134976
33.695 0.00786373
33.735 0.018233
33.775 -0.00032378
33.815 0.0200875
33.855 0.0141933
33.895 -0.00168349
33.935 0.00631257
33.975 -0.00391286
34.015 -0.00498869
34.055 0.0109433
34.095 0.0154547
34.135 0.00242902
34.175 -0.0140136
34.215 -0.00580735
34.255 -0.0146387
34.295 -0.00980959
34.335 -0.00395113
34.375 0.00543069
34.415 -0.0142607
34.455 -0.00217067
34.495 -0.00910822
34.535 0.00650977
34.575 0.0244397
34.615 -0.0184343
34.655 0.00354147
34.695 0.00183549
34.735 -0.0190623
34.775 -0.0189028
34.815 -0.00479316
34.855 0.0237699
34.895 -0.00940016
34.935 0.0166092
34.975 0.00196811
35.015 0.0152038
35.055 0.0381045
35.095 0.0272659
35.135 0.0363339
35.175 0.0336898
35.215 0.016217
35.255 0.0199853
35.295 0.013355
35.335 0.0173694
35.375 0.000143153
35.415 -0.00931831
35.455 0.00762483
35.495 0.00914429
35.535 0.0041467
35.575 -0.021411
35.615 0.020901
35.655 0.0155403
35.695 0.00475672
35.735 -0.000343259
35.775 0.00260711
35.815 -0.00249298
35.855 -0.00180811
35.895 0.000555379
35.935 -0.0261072
35.975 0.00354419
36.015 -0.000921192
36.055 -0.00774405
36.095 0.00738275
36.135 0.00972177
36.175 -0.00639341
36.215 0.0163624
36.255 0.012037
36.295 -0.0197396
36.335 -0.000827393
36.375 -8.28751e-06
36.415 -0.00311472
36.455 -0.00733174
36.495 -0.0168544
36.535 -0.00882192
36.575 0.00721724
36.615 -0.0114849
36.655 0.0146681
36.695 0.00468851
36.735 -0.00371339
36.775 0.0367517
36.815 0.0303785
36.855 0.0185047
36.895 0.0624411
36.935 0.0851555
36.975 0.0939742
37.015 0.108482
37.055 0.118595
37.095 0.0858049
37.135 0.079466
37.175 0.072323
37.215 0.0542318
37.255 0.036236
37.295 0.0612653
37.335 0.0471203
37.375 0.0363535
37.415 0.0316008
37.455 0.00754056
37.495 0.0249775
37.535 0.0217531
37.575 0.0403673
37.615 0.0530463
37.655 0.0484224
37.695 0.0574747
37.735 0.099133
37.775 0.107287
37.815 0.13388
37.855 0.147106
37.895 0.178632
37.935 0.209925
37.975 0.280092
38.015 0.296767
38.055 0.406089
38.095 0.65909
38.135 1.04542
38.175 1.90928
38.215 3.21761
38.255 4.85469
38.295 6.32657
38.335 6.62851
38.375 5.92152
38.415 4.63306
38.455 3.24224
38.495 2.07463
38.535 1.25803
38.575 0.776154
38.615 0.472669
38.655 0.313201
38.695 0.246505
38.735 0.250511
38.775 0.242014
38.815 0.265463
38.855 0.322457
38.895 0.349834
38.935 0.351012
38.975 0.307472
39.015 0.252877
39.055 0.186986
39.095 0.129608
39.135 0.0975249
39.175 0.0734502
39.215 0.0410565
39.255 0.0251043
39.295 0.00142864
39.335 0.0135357
39.375 0.00440586
39.415 0.00403381
39.455 0.00642871
39.495 0.0268715
39.535 0.0383365
39.575 0.0286502
39.615 0.0174701
39.655 0.0329233
39.695 0.00371068
39.735 0.0280799
39.775 0.019474
39.815 0.00526301
39.855 0.00156125
39.895 0.00748052
39.935 0.00630161
39.975 0.0111723
40.015 0.0124949
40.055 -0.00261503
40.095 0.0093995
40.135 -0.00316893
40.175 0.00493821
40.215 -0.00167157
40.255 0.00959611
40.295 -0.0199508
40.335 -0.00257535
40.375 -0.0149468
40.415 -0.015625
40.455 -0.00757495
40.495 -0.0154452
40.535 -0.0204381
40.575 0.00727071
40.615 -0.0181699
40.655 -0.0173594
40.695 0.00647075
40.735 0.00375649
40.775 -0.00630201
40.815 -0.0086481
40.855 0.0100846
40.895 -0.000919869
40.935 0.0247869
40.975 0.0219631
41.015 0.0180788
41.055 0.0261823
41.095 0.0460032
41.135 0.0105041
41.175 0.0348763
41.215 0.0229636
41.255 0.00391557
41.295 0.0329049
41.335 0.00293358
41.375 0.000848735
41.415 0.000102989
41.455 -0.0235667
41.495 -0.00422367
41.535 0.00526272
41.575 0.0100698
41.615 0.0130143
41.655 -0.00610144
41.695 0.00467428
41.735 -0.0161335
41.775 -0.00928121
41.815 -0.00472054
41.855 0.0147882
41.895 -0.00860386
41.935 -0.00945194
41.975 -0.0133864
42.015 0.00429648
42.055 -0.00191381
42.095 0.00257832
42.135 0.00607303
42.175 -1.12028e-08
42.215 0.00750336
42.255 0.00691046
42.295 -0.0152851
42.335 -0.0117134
42.375 0.00326025
42.415 0.00975924
42.455 0.0177365
42.495 0.00907593
42.535 0.00785939
42.575 -0.00609708
42.615 0.014915
42.655 0.0101626
42.695 0.000957437
42.735 -0.0191749
42.775 -0.0229715
42.815 0.0113251
42.855 0.00535363
42.895 0.0378122
42.935 0.0199667
42.975 0.0228519
43.015 0.00788946
43.055 0.00737823
43.095 -0.00931357
43.135 -0.0121434
43.175 0.0216246
43.215 -0.0217897
43.255 -0.00260688
43.295 -0.00844829
43.335 -0.0128559
43.375 -0.00942943
43.415 0.0378592
43.455 -0.00323317
43.495 -0.00376167
43.535 0.0176328
43.575 0.0165695
43.615 -0.0073761
43.655 0.0323955
43.695 0.00107233
43.735 0.024673
43.775 0.0165933
43.815 -0.018561
43.855 -0.00978679
43.895 0.00359772
43.935 0.00901724
43.975 -0.00436982
44.015 -0.0102822
44.055 -0.00471424
44.095 0.0110522
44.135 0.00288752
44.175 0.00783517
44.215 -0.000775679
44.255 -0.00715289
44.295 -0.0123739
44.335 -0.0119548
44.375 0.00995329
44.415 0.0153244
44.455 -0.00481994
44.495 -0.00683208
44.535 0.0109895
44.575 0.00594562
44.615 0.0138516
44.655 0.0298329
44.695 0.0158321
44.735 0.0414184
44.775 0.0468105
44.815 0.0851843
44.855 0.16172
44.895 0.277269
44.935 0.479254
44.975 0.738759
45.015 0.863951
45.055 0.917935
45.095 0.848149
45.135 0.679651
45.175 0.458496
45.215 0.341586
45.255 0.229627
45.295 0.128747
45.335 0.0766607
45.375 0.0295138
45.415 0.0288271
45.455 0.0170918
45.495 0.0102996
45.535 0.00637448
45.575 -0.00338366
45.615 -0.0113749
45.655 0.00473463
45.695 -0.0220842
45.735 0.0052355
45.775 0.0116214
45.815 -0.0129464
45.855 -0.0100628
45.895 -0.0030061
45.935 0.00677195
45.975 -0.0103257
46.015 -0.00679657
46.055 0.00392271
46.095 0.00447575
46.135 -0.00892812
46.175 -0.011887
46.215 -0.0191454
46.255 -0.0146559
46.295 -0.000660607
46.335 -0.00825707
46.375 -0.00213816
46.415 -0.00192882
46.455 -0.0108648
46.495 -0.00108212
46.535 -0.00496879
46.575 -0.00439115
46.615 0.00841514
46.655 0.00285614
46.695 0.0115095
46.735 0.0169195
46.775 0.0118565
46.815 0.0217099
46.855 0.0129205
46.895 -0.00428984
46.935 -0.00131187
46.975 0.0222887
47.015 0.000481337
47.055 0.0118416
47.095 -0.00965715
47.135 0.0181483
47.175 0.00948579
47.215 -0.0024804
47.255 0.00157077
47.295 0.0205127
47.335 -0.0201641
47.375 -0.00793784
47.415 -0.00247461
47.455 -0.0117037
47.495 -0.012368
47.535 -0.0140436
47.575 -0.0218714
47.615 -0.00795163
47.655 -0.0177771
47.695 -0.0102661
47.735 -0.00992499
47.775 -0.00373728
47.815 0.00407584
47.855 0.0165089
47.895 0.0135312
47.935 0.0192099
47.975 0.0095922
48.015 0.0433724
48.055 0.0170496
48.095 0.0146155
48.135 0.0142213
48.175 -0.0079269
48.215 -0.000819421
48.255 -0.00381109
48.295 0.0104702
48.335 0.00258855
48.375 -0.000747145
48.415 -0.0149384
48.455 0.00484804
48.495 -0.00105597
48.535 -0.00611599
48.575 -0.00390633
48.615 -0.00497023
48.655 0.000301299
48.695 -0.0144221
48.735 0.00645243
48.775 -0.0099012
48.815 -0.0036658
48.855 -0.00961215
48.895 -3.50485e-05
48.935 0.00545041
48.975 0.00874921
49.015 -0.0129184
49.055 -0.0129694
49.095 0.00259168
49.135 0.0082705
49.175 -0.0157386
49.215 -0.0147412
49.255 0.00612331
49.295 0.00469569
49.335 -0.0142398
49.375 -0.0106886
49.415 0.000853329
49.455 -0.00790421
49.495 -0.00236327
49.535 -0.0114681
49.575 0.00173682
49.615 -0.00881967
49.655 -0.0062792
49.695 -0.00794987
49.735 -0.0160015
49.775 0.00232955
49.815 -0.00621096
49.855 -0.00458255
49.895 -0.00388784
49.935 0.000977512
49.975 0.000175361
50.015 -0.00646027
50.055 -0.00117089
50.095 -0.00144139
50.135 0.00816144
50.175 0.00340788
50.215 0.0137448
50.255 -0.00553274
50.295 -0.00294817
50.335 0.00638482
50.375 0.00725419
50.415 -0.00648609
50.455 -0.0156991
50.495 -0.0212306
50.535 -0.0145812
50.575 -0.00787728
50.615 -0.00190888
50.655 -0.0147587
50.695 -0.0112396
50.735 -0.000469082
50.775 -0.017894
50.815 0.00148915
50.855 0.000804211
50.895 -0.00993756
50.935 0.0143478
50.975 -0.0102161
51.015 0.00144644
51.055 0.00821895
51.095 -0.000228657
51.135 0.0201714
51.175 0.00124089
51.215 0.00991612
51.255 -0.0196667
51.295 0.00609827
51.335 -0.00365082
51.375 -0.00699877
51.415 -0.0158619
51.455 -0.00334796
51.495 -0.00138203
51.535 -0.00130968
51.575 -0.000643214
51.615 0.00370776
51.655 0.0153148
51.695 0.0127366
51.735 0.00899683
51.775 0.0189871
51.815 0.0158037
51.855 0.0133744
51.895 0.0318989
51.935 0.0336199
51.975 0.00934417
52.015 0.0136135
52.055 0.00858971
52.095 -0.00867645
52.135 0.000904041
52.175 -0.0173041
52.215 -0.00509393
52.255 0.00115271
52.295 0.0139833
52.335 0.00389011
52.375 0.00740617
52.415 0.0214436
52.455 0.016884
52.495 0.0332626
52.535 0.0266428
52.575 0.0103796
52.615 0.0152436
52.655 0.0142354
52.695 0.0261967
52.735 0.00197673
52.775 -0.0101139
52.815 -0.00578566
52.855 -0.00234987
52.895 -0.00618327
52.935 -0.0013498
52.975 -0.0105764
53.015 0.000141639
53.055 -0.00508739
53.095 -0.00427904
53.135 -0.00135287
53.175 0.00647339
53.215 0.00687895
53.255 0.0232532
53.295 0.0152443
53.335 0.00859848
53.375 0.0257174
53.415 0.0355252
53.455 0.0126376
53.495 0.0218645
53.535 0.0147305
53.575 0.0249088
53.615 0.0199919
53.655 0.00504799
53.695 0.00759431
53.735 0.000387929
53.775 -0.0167522
53.815 0.00307756
53.855 -0.00626833
53.895 0.000244939
53.935 -0.0159026
53.975 -0.00568719
54.015 -0.00678535
54.055 -0.0151499
54.095 -0.010571
54.135 0.00954341
54.175 0.0093906
54.215 0.00852058
54.255 0.00662307
54.295 0.00162384
54.335 0.00266857
54.375 -0.0151735
54.415 0.000619053
54.455 -0.00122632
54.495 0.00667931
54.535 0.00303533
54.575 -0.00486684
54.615 0.000397952
54.655 -0.00395315
54.695 0.00939456
54.735 0.0109349
54.775 0.00304162
54.815 -0.0099758
54.855 -0.000521965
54.895 0.00103027
54.935 -0.0100991
54.975 0.00489881
55.015 0.00955579
55.055 -0.0126308
55.095 -0.0016093
55.135 0.001409
55.175 0.00739724
55.215 0.00568525
55.255 -0.00182384
55.295 -0.00291043
55.335 -0.00739187
55.375 0.0086763
55.415 -0.0126429
55.455 0.0011901
55.495 0.00617023
55.535 -0.0150106
55.575 0.00112253
55.615 0.00505112
55.655 0.00859451
55.695 -0.00278116
55.735 -0.00979573
55.775 -0.0095008
55.815 -0.00687619
55.855 -0.000737522
55.895 -0.00267324
55.935 -0.00279915
55.975 8.73971e-05
56.015 -0.00913352
56.055 -0.00536307
56.095 0.00397534
56.135 -0.00320523
56.175 -0.0178684
56.215 -0.0103251
56.255 -0.0113782
56.295 -0.0114689
56.335 -0.00210791
56.375 -0.00398354
56.415 -0.000993415
56.455 -0.0179647
56.495 -0.00175737
56.535 0.000463768
56.575 -0.00145723
56.615 -0.0107745
56.655 -0.00270232
56.695 -0.00859184
56.735 -0.0069804
56.775 -0.00108333
56.815 -0.00163916
56.855 0.00230136
56.895 -0.00780227
56.935 0.00873505
56.975 0.00589844
57.015 -0.0062466
57.055 0.000174501
57.095 -0.0113245
57.135 -0.0148573
57.175 -0.0155622
57.215 -0.00928943
57.255 0.00287949
57.295 -0.0159545
57.335 -0.0128282
57.375 0.00106275
57.415 0.000925942
57.455 -0.0050954
57.495 0.00333376
57.535 0.0107166
57.575 0.000501977
57.615 0.00969298
57.655 0.00548321
57.695 -0.000795481
57.735 0.00550596
57.775 0.000943632
57.815 -0.00674334
57.855 0.0144412
57.895 0.0112294
57.935 0.00326521
57.975 0.00211641
58.015 0.00993451
58.055 0.00869183
58.095 -0.00692771
58.135 -0.00633704
58.175 -0.00721505
58.215 -0.0023746
58.255 0.00464023
58.295 -0.006247
58.335 -0.0116029
58.375 -0.0010213
58.415 4.3994e-05
58.455 -0.0124214
58.495 -0.000575109
58.535 -0.0165778
58.575 -0.0023124
58.615 -0.00275063
58.655 -0.00198457
58.695 -0.00129166
58.735 -0.00571123
58.775 0.00354296
58.815 -0.00106136
58.855 0.0258115
58.895 0.0251573
58.935 0.0346476
58.975 0.0413434
59.015 0.0505429
59.055 0.0556748
59.095 0.0469343
59.135 0.0666061
59.175 0.0346417
59.215 0.0516534
59.255 0.0384303
59.295 0.0178409
59.335 0.00587451
59.375 0.0227642
59.415 -0.00145303
59.455 0.0149799
59.495 0.0150218
59.535 -0.00635648
59.575 -0.00190892
59.615 -0.00109663
59.655 -0.0125031
59.695 -0.00949369
59.735 0.00277191
59.775 -0.00474837
59.815 -0.0091031
59.855 -0.00370356
59.895 0.00755565
59.935 -0.0188139
59.975 0.00127812
60.015 -0.00573882
60.055 -0.000137986
60.095 -0.00407642
60.135 -0.0079665
60.175 -0.0113669
60.215 0.00650942
60.255 -0.00594966
60.295 0.0111325
60.335 0.0120009
60.375 0.00784933
60.415 0.0190439
60.455 -0.00175076
60.495 0.0126796
60.535 0.013481
60.575 -0.00413722
60.615 -0.0126156
60.655 0.00449915
60.695 0.0085334
60.735 0.00724163
60.775 0.00917183
60.815 -0.00698499
60.855 -0.010774
60.895 -0.0147436
60.935 0.00458221
60.975 0.00744833
61.015 0.00444457
61.055 0.0102144
61.095 -0.0067905
61.135 -0.019007
61.175 0.00552871
61.215 0.00811625
61.255 0.0169467
61.295 0.0104245
61.335 0.0118479
61.375 -0.00148156
61.415 -0.0148483
61.455 0.00974328
61.495 0.0149712
61.535 -0.00104685
61.575 0.0025855
61.615 0.00671386
61.655 0.00657919
61.695 0.0108865
61.735 0.00175538
61.775 0.00990761
61.815 0.0192261
61.855 -0.00450033
61.895 -0.00549262
61.935 0.00206335
61.975 0.00135934
62.015 -0.0048623
62.055 0.0058148
62.095 -0.0146565
62.135 0.000298435
62.175 0.0149482
62.215 0.0121521
62.255 0.0021752
62.295 0.00381083
62.335 -0.0111433
62.375 0.00884232
62.415 0.00120589
62.455 -0.00747743
62.495 0.00831445
62.535 -0.00170081
62.575 0.00561027
62.615 -0.0111569
62.655 -0.0086569
62.695 0.00131971
62.735 -0.00703662
62.775 0.0128994
62.815 -0.00867109
62.855 0.00891997
62.895 -0.00140848
62.935 0.000968866
62.975 -0.000194546
63.015 0.0177542
63.055 0.0146228
63.095 0.0362142
63.135 0.0091305
63.175 0.0161923
63.215 0.0118633
63.255 0.00563015
63.295 0.0164133
63.335 0.00645963
63.375 0.00515978
63.415 0.0328282
63.455 0.0131097
63.495 0.0030052
63.535 0.00768581
63.575 0.0100436
63.615 -0.0025944
63.655 0.00226735
63.695 0.0363531
63.735 -0.006134
63.775 -0.00727047
63.815 0.0162082
63.855 -0.00896447
63.895 -0.0163488
63.935 0.00468602
63.975 -0.00195521
64.015 -0.00587529
64.055 -0.00384585
64.095 -0.00584082
64.135 -0.0106149
64.175 -0.00862641
64.215 0.0284298
64.255 0.0131385
64.295 -0.0109168
64.335 -0.0130797
64.375 -0.00645532
64.415 -0.00112726
64.455 0.0119117
64.495 -0.00416506
64.535 -0.0141059
64.575 -0.00470987
64.615 0.00552203
64.655 0.00625194
64.695 -0.00671889
64.735 0.0011786
64.775 0.025069
64.815 0.0252242
64.855 0.0293911
64.895 0.0233128
64.935 0.0472353
64.975 0.0456401
65.015 0.060585
65.055 0.0909259
65.095 0.101075
65.135 0.122826
65.175 0.14876
65.215 0.193698
65.255 0.162458
65.295 0.190824
65.335 0.167419
65.375 0.166158
65.415 0.131272
65.455 0.120461
65.495 0.0933903
65.535 0.0780601
65.575 0.0535029
65.615 0.0275167
65.655 0.0329571
65.695 0.0174667
65.735 0.0168186
65.775 0.00142933
65.815 -0.00396255
65.855 0.0135331
65.895 -0.00908198
65.935 0.00647701
65.975 -0.00607662
66.015 -0.00835869
66.055 -0.000697434
66.095 0.00869485
66.135 0.00623574
66.175 0.0105416
66.215 0.0167966
66.255 0.000397105
66.295 0.0243836
66.335 0.0146146
66.375 0.0213025
66.415 0.0273
66.455 0.00688265
66.495 -0.00065991
66.535 0.00997209
66.575 0.0309689
66.615 0.0164503
66.655 0.0301209
66.695 0.00747922
66.735 0.013298
66.775 -0.00159714
66.815 -0.0060004
66.855 0.0196786
66.895 0.00627249
66.935 -0.00746548
66.975 0.00905636
67.015 0.00399122
67.055 -0.00040942
67.095 0.00123131
67.135 0.0139514
67.175 0.0128877
67.215 0.00880869
67.255 0.00394243
67.295 -0.00469496
67.335 -0.0117924
67.375 -0.00672963
67.415 0.00848079
67.455 0.00436769
67.495 0.00179295
67.535 -0.0182237
67.575 0.0305631
67.615 -0.00278399
67.655 0.0230926
67.695 0.0217685
67.735 0.00653329
67.775 0.0152299
67.815 0.0128301
67.855 0.010823
67.895 0.00556476
67.935 0.0227102
67.975 -0.000336523
68.015 0.0266664
68.055 0.0137481
68.095 0.0110612
68.135 0.0146276
68.175 0.0270846
68.215 0.010085
68.255 -0.00241
68.295 0.00740871
68.335 0.00352685
68.375 0.00839028
68.415 0.00361207
68.455 0.00675207
68.495 0.00279915
68.535 -0.00203723
68.575 0.00948131
68.615 -0.0129897
68.655 0.00887026
68.695 0.0259496
68.735 0.0242294
68.775 0.0161623
68.815 -0.00913304
68.855 0.00503214
68.895 0.0228647
68.935 0.0161195
68.975 0.0217732
69.015 0.00138916
69.055 0.0309224
69.095 0.0222617
69.135 0.0387012
69.175 0.0330728
69.215 0.0382231
69.255 0.0486675
69.295 0.0251135
69.335 0.0335755
69.375 0.0222846
69.415 0.0183127
69.455 0.0197653
69.495 0.0123687
69.535 0.00191227
69.575 0.00496375
69.615 0.00128587
69.655 0.00893635
69.695 -0.00897066
69.735 0.0077777
69.775 0.00788067
69.815 -0.0117114
69.855 0.00563828
69.895 0.00643677
69.935 0.01319
69.975 0.00538586
70.015 0.0167123
70.055 0.00882932
70.095 -0.00571685
70.135 -0.0148252
70.175 -0.0151359
70.215 0.0239187
70.255 -0.00146287
70.295 0.00966694
70.335 0.0177386
70.375 0.0156656
70.415 0.00502982
70.455 -0.00774987
70.495 -0.00278038
70.535 0.00686831
70.575 -0.00357104
70.615 -0.00456283
70.655 -0.0178077
70.695 0.00854092
70.735 0.00266049
70.775 -0.00461926
70.815 -0.00421129
70.855 -0.00603204
70.895 9.06e-05
70.935 -0.017583
70.975 -0.0130311
71.015 -0.0117854
71.055 -0.0172225
71.085 -0.0192856