File: data/xrd/xy/2019-06-10T22_05_20.195696+00_00_LBL_A5.xy
'Id: "" Comment: "Integrate frame 06132019_dimethyl_ipropyl_05_002.gfrmwith cursor Wedge Cursor #6" Operator: "UC Berkeley" Anode: "Co" Scantype: "TwoTheta" TimePerStep: "480"
20.78 -0.0302513
20.81 -0.0192121
20.84 0.00510891
20.87 -0.0197515
20.9 0.0152834
20.93 -0.0253344
20.96 0.0161811
20.99 0.0173167
21.02 -0.00117088
21.05 -0.0098549
21.08 0.0118101
21.11 0.0148781
21.14 0.0127998
21.17 0.0392665
21.2 0.00337154
21.23 -0.0190944
21.26 0.0155759
21.29 0.0642707
21.32 0.0338014
21.35 0.0475529
21.38 0.0588034
21.41 0.0273841
21.44 0.0406842
21.47 0.0278574
21.5 0.00765455
21.53 0.0423822
21.56 0.02327
21.59 0.00942123
21.62 0.041683
21.65 0.0308
21.68 -0.016537
21.71 0.0478477
21.74 0.0426928
21.77 0.0181274
21.8 0.0461844
21.83 0.0477603
21.86 0.00614388
21.89 0.0427363
21.92 0.0583355
21.95 0.0468447
21.98 0.0463727
22.01 0.0183313
22.04 0.0158505
22.07 0.0504298
22.1 0.0302766
22.13 0.0367538
22.16 0.0258937
22.19 0.0107087
22.22 0.00920587
22.25 0.0438771
22.28 0.0486502
22.31 0.00320694
22.34 0.00851393
22.37 0.0258614
22.4 0.00335143
22.43 0.0317805
22.46 0.00063715
22.49 0.0535624
22.52 0.0130061
22.55 0.00895644
22.58 0.0166605
22.61 0.0684195
22.64 0.0215199
22.67 0.0241741
22.7 0.0251551
22.73 0.0202766
22.76 0.0359766
22.79 0.0098288
22.82 0.0279998
22.85 0.0424297
22.88 0.0247223
22.91 0.0231293
22.94 0.0347204
22.97 0.063669
23 0.0599126
23.03 0.024659
23.06 0.0353102
23.09 0.0232234
23.12 0.029544
23.15 0.0299173
23.18 0.0432582
23.21 0.00613885
23.24 0.03762
23.27 0.0620503
23.3 0.0339042
23.33 0.052084
23.36 0.0524555
23.39 0.0300457
23.42 0.0061607
23.45 0.0252839
23.48 0.0325613
23.51 0.0158409
23.54 0.0203099
23.57 0.0169097
23.6 0.00915237
23.63 0.0129327
23.66 0.044117
23.69 0.0136988
23.72 0.0151874
23.75 0.0292385
23.78 0.0276685
23.81 0.0553673
23.84 0.0392759
23.87 0.0288578
23.9 0.00856574
23.93 0.0348412
23.96 0.0376985
23.99 0.0065909
24.02 0.0329911
24.05 0.0250459
24.08 0.0370096
24.11 0.0219095
24.14 0.0144962
24.17 0.0436994
24.2 0.0683877
24.23 0.024788
24.26 0.0267407
24.29 0.0585667
24.32 0.0454098
24.35 0.0343835
24.38 0.0614442
24.41 0.0301204
24.44 -0.000154698
24.47 0.0389718
24.5 0.0554847
24.53 0.039409
24.56 0.0225637
24.59 0.0359205
24.62 0.0465765
24.65 0.0322267
24.68 0.0553443
24.71 0.0219837
24.74 -0.011518
24.77 -0.0100949
24.8 0.0214938
24.83 0.0175979
24.86 0.00789377
24.89 0.0620183
24.92 0.0366103
24.95 0.0490258
24.98 0.0320617
25.01 0.0574844
25.04 0.058943
25.07 0.0704063
25.1 0.0538235
25.13 0.0641415
25.16 0.101666
25.19 0.0624996
25.22 0.0988167
25.25 0.108222
25.28 0.0976742
25.31 0.127269
25.34 0.0903904
25.37 0.136764
25.4 0.0637475
25.43 0.0977991
25.46 0.0786992
25.49 0.1062
25.52 0.0516505
25.55 0.0719566
25.58 0.0460272
25.61 0.0735174
25.64 0.0583987
25.67 0.0730545
25.7 0.058461
25.73 0.0371872
25.76 0.0649023
25.79 0.0734269
25.82 0.0430014
25.85 0.077218
25.88 0.0805341
25.91 0.0276367
25.94 0.00620824
25.97 0.0128333
26 0.0368335
26.03 0.0542235
26.06 0.0472938
26.09 0.0731748
26.12 0.0218694
26.15 0.0818821
26.18 0.0368437
26.21 0.0675789
26.24 0.0755766
26.27 0.0577564
26.3 0.072393
26.33 0.0673589
26.36 0.0401446
26.39 0.0847033
26.42 0.0768071
26.45 0.0653774
26.48 0.0183118
26.51 0.0342571
26.54 0.0255938
26.57 0.0167228
26.6 0.03099
26.63 0.0127079
26.66 0.0494033
26.69 0.0246144
26.72 0.0571866
26.75 0.0232367
26.78 0.0283198
26.81 0.0566849
26.84 0.0203121
26.87 0.0250818
26.9 0.0234024
26.93 0.013001
26.96 0.00690884
26.99 0.0590129
27.02 0.0382602
27.05 0.0661224
27.08 0.0550657
27.11 0.0459533
27.14 0.0576918
27.17 0.0465852
27.2 0.0635816
27.23 0.0962485
27.26 0.116038
27.29 0.143392
27.32 0.11684
27.35 0.137408
27.38 0.110723
27.41 0.122702
27.44 0.137493
27.47 0.15659
27.5 0.120424
27.53 0.119438
27.56 0.113795
27.59 0.12386
27.62 0.152723
27.65 0.214451
27.68 0.199314
27.71 0.253504
27.74 0.269668
27.77 0.286119
27.8 0.298512
27.83 0.288817
27.86 0.265073
27.89 0.263647
27.92 0.225239
27.95 0.201923
27.98 0.189285
28.01 0.167527
28.04 0.135803
28.07 0.138518
28.1 0.106266
28.13 0.109065
28.16 0.0838757
28.19 0.0910734
28.22 0.120323
28.25 0.117538
28.28 0.117767
28.31 0.125329
28.34 0.116071
28.37 0.123906
28.4 0.123848
28.43 0.113621
28.46 0.104374
28.49 0.0802888
28.52 0.0761124
28.55 0.0624834
28.58 0.052887
28.61 0.0816312
28.64 0.0695413
28.67 0.102094
28.7 0.0956739
28.73 0.12493
28.76 0.130342
28.79 0.174338
28.82 0.182045
28.85 0.208604
28.88 0.237601
28.91 0.242172
28.94 0.246735
28.97 0.264728
29 0.291867
29.03 0.261052
29.06 0.241148
29.09 0.242887
29.12 0.244581
29.15 0.252858
29.18 0.206809
29.21 0.228694
29.24 0.220982
29.27 0.219379
29.3 0.213669
29.33 0.225585
29.36 0.215895
29.39 0.168986
29.42 0.187669
29.45 0.170144
29.48 0.128938
29.51 0.104537
29.54 0.102062
29.57 0.0852916
29.6 0.0824819
29.63 0.0617941
29.66 0.0937025
29.69 0.0773506
29.72 0.0434225
29.75 0.0324047
29.78 0.0579877
29.81 0.0354055
29.84 0.0357777
29.87 0.0274581
29.9 0.0228141
29.93 0.0363563
29.96 0.0335703
29.99 0.0442968
30.02 0.020984
30.05 0.0205984
30.08 0.0221301
30.11 0.0157107
30.14 0.0527965
30.17 0.0473667
30.2 0.00686352
30.23 0.0363322
30.26 0.0373598
30.29 0.0358088
30.32 0.0637815
30.35 0.0772572
30.38 0.056677
30.41 0.072734
30.44 0.0352934
30.47 0.0921386
30.5 0.0884347
30.53 0.122957
30.56 0.11586
30.59 0.165501
30.62 0.177452
30.65 0.185159
30.68 0.203509
30.71 0.233997
30.74 0.242861
30.77 0.255586
30.8 0.20643
30.83 0.20274
30.86 0.225078
30.89 0.244046
30.92 0.243033
30.95 0.200568
30.98 0.205289
31.01 0.147806
31.04 0.130303
31.07 0.113993
31.1 0.0905783
31.13 0.136299
31.16 0.0891944
31.19 0.0510639
31.22 0.0577359
31.25 0.0590328
31.28 0.0147839
31.31 0.0398696
31.34 0.0259813
31.37 0.0385577
31.4 0.031607
31.43 0.0207602
31.46 0.0307548
31.49 0.0225055
31.52 0.0144398
31.55 0.00071068
31.58 0.0115242
31.61 0.0166075
31.64 0.0133208
31.67 0.034144
31.7 -0.000905133
31.73 0.0301256
31.76 0.0306721
31.79 0.0140443
31.82 0.003084
31.85 0.0196693
31.88 0.032458
31.91 0.0265601
31.94 0.0390536
31.97 0.045537
32 0.0306098
32.03 0.0612462
32.06 0.0562419
32.09 0.0727249
32.12 0.0859221
32.15 0.08543
32.18 0.107324
32.21 0.142122
32.24 0.166544
32.27 0.159377
32.3 0.189494
32.33 0.237344
32.36 0.244166
32.39 0.240808
32.42 0.225928
32.45 0.24955
32.48 0.20639
32.51 0.177705
32.54 0.142577
32.57 0.106217
32.6 0.110686
32.63 0.089349
32.66 0.067327
32.69 0.0559095
32.72 0.0548372
32.75 0.0521817
32.78 0.0325588
32.81 0.0364126
32.84 0.039066
32.87 0.0326174
32.9 0.0248359
32.93 0.0237928
32.96 0.0202279
32.99 0.039464
33.02 0.0432572
33.05 0.00934676
33.08 0.0196817
33.11 0.00828149
33.14 0.0208616
33.17 0.0218559
33.2 -0.00530136
33.23 0.0200144
33.26 0.0168907
33.29 0.0224311
33.32 0.00525814
33.35 0.0320029
33.38 0.0140503
33.41 0.0303502
33.44 0.0451094
33.47 0.0312197
33.5 0.0696556
33.53 0.0442166
33.56 0.0664986
33.59 0.0692079
33.62 0.0513019
33.65 0.0534239
33.68 0.0705648
33.71 0.0638004
33.74 0.0730819
33.77 0.0947787
33.8 0.0769805
33.83 0.0859789
33.86 0.0743379
33.89 0.0868312
33.92 0.0786954
33.95 0.0689796
33.98 0.0792736
34.01 0.102609
34.04 0.0645324
34.07 0.0965727
34.1 0.0817207
34.13 0.0853497
34.16 0.095502
34.19 0.112026
34.22 0.122512
34.25 0.118017
34.28 0.120766
34.31 0.0975411
34.34 0.114686
34.37 0.0790827
34.4 0.0787817
34.43 0.0922799
34.46 0.0756139
34.49 0.0646403
34.52 0.0682976
34.55 0.0716358
34.58 0.0926374
34.61 0.0656006
34.64 0.0670683
34.67 0.0855732
34.7 0.0946708
34.73 0.0990981
34.76 0.104224
34.79 0.119986
34.82 0.0822913
34.85 0.0895397
34.88 0.0989609
34.91 0.115068
34.94 0.124785
34.97 0.115292
35 0.113236
35.03 0.109478
35.06 0.0964732
35.09 0.0707978
35.12 0.0717861
35.15 0.0719173
35.18 0.0708412
35.21 0.0580268
35.24 0.0557301
35.27 0.0660272
35.3 0.0638093
35.33 0.0756447
35.36 0.104396
35.39 0.0753062
35.42 0.0959624
35.45 0.109121
35.48 0.127094
35.51 0.135192
35.54 0.143808
35.57 0.159816
35.6 0.139564
35.63 0.154402
35.66 0.13949
35.69 0.128439
35.72 0.101644
35.75 0.105138
35.78 0.100674
35.81 0.0924428
35.84 0.0695023
35.87 0.0819845
35.9 0.0698989
35.93 0.0701817
35.96 0.0710954
35.99 0.0447638
36.02 0.0575375
36.05 0.0567251
36.08 0.0663664
36.11 0.0179753
36.14 0.055091
36.17 0.0364664
36.2 0.0202927
36.23 0.041404
36.26 0.023733
36.29 0.0377016
36.32 0.04267
36.35 0.0485414
36.38 0.0386448
36.41 0.0207603
36.44 0.0262358
36.47 0.0254193
36.5 0.0310412
36.53 0.0184796
36.56 0.0125716
36.59 0.0334523
36.62 0.0478636
36.65 0.026818
36.68 0.0471462
36.71 0.0475856
36.74 0.050249
36.77 0.0507157
36.8 0.0318198
36.83 0.0552906
36.86 0.0721848
36.89 0.068372
36.92 0.0710988
36.95 0.087463
36.98 0.0665466
37.01 0.0782414
37.04 0.0740107
37.07 0.0629225
37.1 0.0756025
37.13 0.095105
37.16 0.0915284
37.19 0.102697
37.22 0.0928633
37.25 0.0725961
37.28 0.0652323
37.31 0.045612
37.34 0.0511113
37.37 0.0614918
37.4 0.0580754
37.43 0.0471754
37.46 0.0496722
37.49 0.0159173
37.52 0.0116213
37.55 0.0259169
37.58 0.0370352
37.61 0.0177743
37.64 0.00773285
37.67 0.000892312
37.7 -0.00284476
37.73 0.00707152
37.76 -0.00318589
37.79 0.00656796
37.82 0.00378074
37.85 -0.00777419
37.88 -0.0179166
37.91 -0.0117106
37.94 -0.00179003
37.97 -0.00388142
38 -0.00986371
38.03 0.0144062
38.06 0.00320025
38.09 -0.00352408
38.12 -0.00985772
38.15 0.0113482
38.18 0.0046654
38.21 -0.00426974
38.24 0.00650723
38.27 0.0174398
38.3 0.00517652
38.33 -0.000274486
38.36 -0.00699589
38.39 -0.015933
38.42 -0.00683601
38.45 -0.0243514
38.48 0.00138831
38.51 0.0104779
38.54 0.0155813
38.57 0.0371457
38.6 0.0126054
38.63 0.0439595
38.66 0.0243158
38.69 0.0424448
38.72 0.0798221
38.75 0.0692258
38.78 0.0755987
38.81 0.0644364
38.84 0.0835774
38.87 0.113799
38.9 0.0934951
38.93 0.100633
38.96 0.0995351
38.99 0.0979259
39.02 0.0890688
39.05 0.116297
39.08 0.0895913
39.11 0.0741094
39.14 0.0595573
39.17 0.0609817
39.2 0.0306182
39.23 0.039367
39.26 0.0248112
39.29 0.0258603
39.32 0.0206503
39.35 0.00888538
39.38 0.00594222
39.41 -0.0033477
39.44 0.0355108
39.47 0.00351182
39.5 0.0157283
39.53 0.00257365
39.56 -0.0139649
39.59 -0.0101684
39.62 -0.0245769
39.65 -0.00344239
39.68 0.0106465
39.71 0.005597
39.74 -0.00262951
39.77 -0.0214118
39.8 -0.00239606
39.83 -0.00920448
39.86 0.000685527
39.89 0.0029966
39.92 -0.00393051
39.95 -0.011404
39.98 -0.00654295
40.01 -0.0081921
40.04 0.00595861
40.07 -0.0069642
40.1 0.00842692
40.13 0.00925283
40.16 -0.0082608
40.19 -0.00952874
40.22 -0.00427251
40.25 0.0112463
40.28 -0.00141932
40.31 0.0108301
40.34 0.00488101
40.37 0.00708443
40.4 -0.00841042
40.43 0.00373439
40.46 -0.00825806
40.49 0.00918271
40.52 -0.00968513
40.55 -0.011166
40.58 -0.012634
40.61 -0.00189724
40.64 -0.0141183
40.67 -0.00762192
40.7 -0.0137368
40.73 -0.0168655
40.76 -0.0147032
40.79 -0.00574295
40.82 -0.0137764
40.85 -0.013157
40.88 -0.0039036
40.91 -0.00373419
40.94 -0.0051429
40.97 0.000853123
41 0.0042526
41.03 0.00252346
41.06 0.00221829
41.09 0.00851719
41.12 0.00393372
41.15 0.0199498
41.18 0.0122846
41.21 0.00989034
41.24 0.0115329
41.27 0.00292007
41.3 0.0207599
41.33 0.0169426
41.36 0.0126931
41.39 0.0124319
41.42 0.00667169
41.45 0.00453548
41.48 0.0148803
41.51 0.00920173
41.54 -0.000169092
41.57 -0.00121524
41.6 0.00331196
41.63 -0.002146
41.66 0.0223961
41.69 0.00465012
41.72 -0.0174947
41.75 -0.017031
41.78 -0.0127144
41.81 0.00183107
41.84 -0.00151476
41.87 -0.00504409
41.9 0.00137628
41.93 -0.0075494
41.96 -0.00548967
41.99 0.00437701
42.02 0.000687195
42.05 -0.0180199
42.08 -0.00977641
42.11 -0.00521181
42.14 -0.0111294
42.17 -0.00808113
42.2 -0.00251427
42.23 -0.0189131
42.26 -0.00895253
42.29 -0.0218603
42.32 0.00997781
42.35 0.0246545
42.38 0.00690816
42.41 0.00710003
42.44 -0.00727008
42.47 0.00605155
42.5 -0.00112183
42.53 0.0391978
42.56 0.00292913
42.59 0.017179
42.62 0.0188972
42.65 -0.00941805
42.68 0.0366137
42.71 0.0227025
42.74 -0.00755357
42.77 -0.00272101
42.8 0.014167
42.83 0.031082
42.86 0.0257948
42.89 0.0155156
42.92 0.0251694
42.95 0.0160063
42.98 0.0170754
43.01 0.0327696
43.04 0.0320592
43.07 0.0301293
43.1 0.0482543
43.13 0.0415175
43.16 0.0406852
43.19 0.0475287
43.22 0.0590149
43.25 0.0955055
43.28 0.115426
43.31 0.123763
43.34 0.140884
43.37 0.163082
43.4 0.191391
43.43 0.187622
43.46 0.188552
43.49 0.201803
43.52 0.210163
43.55 0.211892
43.58 0.199778
43.61 0.19814
43.64 0.191067
43.67 0.168461
43.7 0.156893
43.73 0.166103
43.76 0.122104
43.79 0.0985935
43.82 0.085693
43.85 0.05775
43.88 0.0669685
43.91 0.0476131
43.94 0.0737886
43.97 0.066271
44 0.0584203
44.03 0.0471676
44.06 0.0454357
44.09 0.0705501
44.12 0.0636991
44.15 0.0652969
44.18 0.0729667
44.21 0.0780012
44.24 0.0837815
44.27 0.0609359
44.3 0.0677685
44.33 0.0790735
44.36 0.0651068
44.39 0.0567959
44.42 0.0610003
44.45 0.0512336
44.48 0.0456311
44.51 0.034139
44.54 0.0323391
44.57 0.0446059
44.6 0.0484446
44.63 0.0115344
44.66 0.0188381
44.69 0.0279916
44.72 0.0186357
44.75 -0.000640419
44.78 9.10808e-05
44.81 -0.0171206
44.84 -0.0103441
44.87 0.0208954
44.9 0.0164697
44.93 0.0307629
44.96 0.0190965
44.99 0.00547702
45.02 -0.00892055
45.05 0.00608811
45.08 0.0164689
45.11 0.0222475
45.14 0.00789337
45.17 -0.000295638
45.2 0.0282643
45.23 0.00745529
45.26 0.040802
45.29 0.0244726
45.32 0.00573003
45.35 0.00360253
45.38 0.00371576
45.41 0.0223508
45.44 0.0171575
45.47 0.0184223
45.5 0.00707271
45.53 0.00213318
45.56 0.0241467
45.59 0.0305619
45.62 0.0126199
45.65 0.00989912
45.68 -0.0016849
45.71 0.044084
45.74 0.0451306
45.77 0.0580826
45.8 0.0625336
45.83 0.0751143
45.86 0.0823776
45.89 0.131297
45.92 0.146468
45.95 0.181047
45.98 0.235299
46.01 0.261317
46.04 0.331746
46.07 0.333784
46.1 0.352339
46.13 0.391043
46.16 0.344771
46.19 0.342792
46.22 0.302761
46.25 0.288128
46.28 0.228376
46.31 0.194627
46.34 0.142808
46.37 0.133004
46.4 0.113323
46.43 0.108581
46.46 0.0780546
46.49 0.114976
46.52 0.0823238
46.55 0.0766765
46.58 0.0907493
46.61 0.099699
46.64 0.117492
46.67 0.10112
46.7 0.103827
46.73 0.11736
46.76 0.121743
46.79 0.12315
46.82 0.151662
46.85 0.162031
46.88 0.175927
46.91 0.189824
46.94 0.206275
46.97 0.226689
47 0.249516
47.03 0.284263
47.06 0.307469
47.09 0.30501
47.12 0.320121
47.15 0.311707
47.18 0.298365
47.21 0.286649
47.24 0.270434
47.27 0.261921
47.3 0.214352
47.33 0.216309
47.36 0.179916
47.39 0.156909
47.42 0.149408
47.45 0.134239
47.48 0.126205
47.51 0.123509
47.54 0.118059
47.57 0.0947801
47.6 0.115671
47.63 0.100067
47.66 0.10523
47.69 0.117264
47.72 0.109423
47.75 0.0868196
47.78 0.102496
47.81 0.100742
47.84 0.0944317
47.87 0.0933233
47.9 0.0827097
47.93 0.0582635
47.96 0.083025
47.99 0.0713361
48.02 0.0848858
48.05 0.0732105
48.08 0.0787027
48.11 0.0683448
48.14 0.0768933
48.17 0.0562245
48.2 0.0655931
48.23 0.0729432
48.26 0.0588853
48.29 0.0568925
48.32 0.0519993
48.35 0.0439995
48.38 0.0328378
48.41 0.0340049
48.44 0.0130311
48.47 0.0180716
48.5 0.0170171
48.53 0.0137571
48.56 0.0170965
48.59 0.0128917
48.62 0.0251392
48.65 0.00308114
48.68 0.00311379
48.71 0.00923172
48.74 0.000886281
48.77 -0.00819057
48.8 0.000516522
48.83 0.0123968
48.86 0.0035927
48.89 -0.00105103
48.92 0.000709864
48.95 0.00739899
48.98 0.0228238
49.01 0.010629
49.04 0.0119077
49.07 0.010086
49.1 0.00104338
49.13 0.00868623
49.16 0.0104876
49.19 0.00239515
49.22 -0.00111249
49.25 0.00363919
49.28 0.0154291
49.31 0.0170107
49.34 0.00636344
49.37 -0.0160473
49.4 0.000839826
49.43 0.013634
49.46 -0.00866869
49.49 -0.00200974
49.52 -0.0116745
49.55 0.00600915
49.58 -0.00625569
49.61 -0.00592271
49.64 -0.00246328
49.67 -0.0041368
49.7 -0.00141046
49.73 -0.000511755
49.76 -0.015309
49.79 -0.0108473
49.82 -0.00368344
49.85 -0.000438046
49.88 -0.00253791
49.91 -0.0120359
49.94 -0.0102724
49.97 -0.0139577
50 -0.0217823
50.03 -0.0171541
50.06 0.00330093
50.09 -0.0172989
50.12 -0.00143976
50.15 -0.00707044
50.18 0.001647
50.21 -0.00542435
50.24 -0.00173506
50.27 0.00514057
50.3 -0.000814698
50.33 -0.00311786
50.36 -0.00364865
50.39 -0.00266482
50.42 -0.00168405
50.45 -0.00454443
50.48 -0.00455344
50.51 -0.00391586
50.54 0.014893
50.57 0.00459997
50.6 0.00136441
50.63 0.0173106
50.66 0.0112513
50.69 0.0160636
50.72 0.0207787
50.75 0.0103729
50.78 0.012482
50.81 0.0114361
50.84 0.0154482
50.87 0.0185225
50.9 0.0290721
50.93 0.024801
50.96 0.0340911
50.99 0.0341613
51.02 0.0364951
51.05 0.0461176
51.08 0.0348672
51.11 0.033421
51.14 0.0318358
51.17 0.0208738
51.2 0.0220756
51.23 0.0244203
51.26 0.0251111
51.29 0.0211089
51.32 0.0102171
51.35 0.00360477
51.38 0.0135823
51.41 -0.007341
51.44 -0.00247698
51.47 -0.000904291
51.5 0.00289042
51.53 0.00154044
51.56 -0.00166913
51.59 0.00674205
51.62 -0.000849372
51.65 0.00394731
51.68 -0.00383509
51.71 0.0074364
51.74 -0.0115687
51.77 -0.00509785
51.8 0.00116797
51.83 -0.00666529
51.86 0.00334932
51.89 -0.00391797
51.92 0.00266371
51.95 -0.012356
51.98 -0.00225193
52.01 -0.00747778
52.04 -0.00714919
52.07 -0.00471961
52.1 0.000483394
52.13 0.00445557
52.16 -0.00452448
52.19 -0.000908332
52.22 -0.0176761
52.25 0.00207973
52.28 -0.00266066
52.31 -0.00247315
52.34 -0.0074308
52.37 0.00579075
52.4 -0.0108377
52.43 0.0165499
52.46 0.00133505
52.49 0.00618741
52.52 0.00545851
52.55 -0.000115384
52.58 0.00380267
52.61 0.0142586
52.64 0.0247109
52.67 0.0296025
52.7 0.0355446
52.73 0.0338202
52.76 0.0211001
52.79 0.0209193
52.82 0.0283456
52.85 0.035132
52.88 0.0266721
52.91 0.0435593
52.94 0.0390749
52.97 0.0338374
53 0.0358184
53.03 0.019813
53.06 0.0071547
53.09 0.0154912
53.12 -0.0042849
53.15 -0.00703428
53.18 -0.00524414
53.21 -0.00733066
53.24 -0.00720584
53.27 -0.00485961
53.3 -0.014801
53.33 -0.000825814
53.36 -0.0153308
53.39 -0.00976253
53.42 -0.0113266
53.45 0.00670536
53.48 -0.00722691
53.51 0.00545475
53.54 -0.00261617
53.57 -0.0064259
53.6 0.00606842
53.63 -0.00602417
53.66 -0.00247589
53.69 0.00487485
53.72 0.00351668
53.75 0.00768727
53.78 0.00664487
53.81 -0.00347134
53.84 0.00814888
53.87 -0.00349249
53.9 -0.00917801
53.93 0.00286425
53.96 0.0043353
53.99 -0.00113713
54.02 0.0147588
54.05 0.00115968
54.08 0.0168714
54.11 0.00415491
54.14 0.0122305
54.17 0.02378
54.2 0.0194977
54.23 0.0259926
54.26 0.0306153
54.29 0.0359502
54.32 0.0404027
54.35 0.0386349
54.38 0.0639782
54.41 0.0542627
54.44 0.0661732
54.47 0.0708255
54.5 0.0765277
54.53 0.0637443
54.56 0.0791753
54.59 0.079032
54.62 0.0898908
54.65 0.089721
54.68 0.0717211
54.71 0.0801624
54.74 0.08459
54.77 0.0782359
54.8 0.0820029
54.83 0.0780215
54.86 0.0718982
54.89 0.0714571
54.92 0.0493676
54.95 0.0390764
54.98 0.0413008
55.01 0.0324354
55.04 0.0449328
55.07 0.0290384
55.1 0.0520886
55.13 0.0367245
55.16 0.0387215
55.19 0.0338466
55.22 0.0303878
55.25 0.0358384
55.28 0.0254109
55.31 0.0276138
55.34 0.0384408
55.37 0.0462643
55.4 0.0430298
55.43 0.0371325
55.46 0.0470775
55.49 0.0496019
55.52 0.0395598
55.55 0.0378659
55.58 0.0469488
55.61 0.0462979
55.64 0.0510377
55.67 0.0373021
55.7 0.0407021
55.73 0.0393183
55.76 0.0274236
55.79 0.0232382
55.82 0.0265051
55.85 0.0327141
55.88 0.0230046
55.91 0.0176483
55.94 0.0060998
55.97 0.0126118
56 0.00733063
56.03 0.0122558
56.06 0.0163579
56.09 -0.00992092
56.12 -0.00630364
56.15 0.00871897
56.18 -0.0053386
56.21 -0.00809129
56.24 0.0112846
56.27 0.00307371
56.3 0.0102721
56.33 0.00269612
56.36 -0.000168922
56.39 -0.00135181
56.42 0.00778202
56.45 0.0126196
56.48 0.00509844
56.51 0.00361115
56.54 -0.00628625
56.57 0.011411
56.6 0.015003
56.63 0.00170264
56.66 0.00506947
56.69 -0.00184577
56.72 0.0175575
56.75 0.019138
56.78 0.0189219
56.81 0.00859698
56.84 0.0237502
56.87 0.0233754
56.9 0.0149786
56.93 0.0206279
56.96 0.0212342
56.99 0.0104195
57.02 0.0466558
57.05 0.0436769
57.08 0.0419307
57.11 0.0353288
57.14 0.0439593
57.17 0.0439053
57.2 0.0504363
57.23 0.0523336
57.26 0.0420508
57.29 0.0437218
57.32 0.0781872
57.35 0.070541
57.38 0.0738602
57.41 0.0801198
57.44 0.0712586
57.47 0.0741539
57.5 0.0689425
57.53 0.0809564
57.56 0.0561356
57.59 0.0609247
57.62 0.0672027
57.65 0.0664418
57.68 0.0441843
57.71 0.0483934
57.74 0.0504111
57.77 0.0340931
57.8 0.0208539
57.83 0.0294736
57.86 0.0383428
57.89 0.00956546
57.92 0.037375
57.95 0.0236699
57.98 0.00881335
58.01 0.0239971
58.04 0.0140014
58.07 0.0120616
58.1 0.0258241
58.13 0.0367915
58.16 0.00871301
58.19 0.0127266
58.22 0.0211845
58.25 0.0204491
58.28 0.0139969
58.31 0.0270834
58.34 0.0256047
58.37 0.0219654
58.4 0.02932
58.43 0.0336504
58.46 0.0251282
58.49 0.0484565
58.52 0.0224286
58.55 0.0244984
58.58 0.0350836
58.61 0.0462615
58.64 0.0436079
58.67 0.0518003
58.7 0.0382621
58.73 0.0380159
58.76 0.0407744
58.79 0.0350407
58.82 0.0356117
58.85 0.050075
58.88 0.0224189
58.91 0.0277665
58.94 0.0284187
58.97 0.0335534
59 0.0420684
59.03 0.0325914
59.06 0.0328863
59.09 0.00651411
59.12 0.0170549
59.15 0.0261196
59.18 0.00491648
59.21 0.00630422
59.24 0.00332466
59.27 0.014339
59.3 0.0138298
59.33 0.00542481
59.36 0.00440907
59.39 0.0095209
59.42 -0.00174218
59.45 0.00527044
59.48 -0.00490181
59.51 -0.00738486
59.54 -0.000616179
59.57 -0.0108507
59.6 -0.00556234
59.63 -0.0188807
59.66 0.00613712
59.69 0.00982345
59.72 -0.0107224
59.75 0.00225104
59.78 -0.0111002
59.81 0.00439421
59.84 -0.0185974
59.87 -0.00121549
59.9 0.00391775
59.93 0.002572
59.96 -0.00810692
59.99 0.00992566
60.02 0.00625449
60.05 0.00365307
60.08 -0.0116762
60.11 -0.00218567
60.14 -0.000794071
60.17 0.00176128
60.2 0.00132516
60.23 0.0149061
60.26 0.0118051
60.29 -0.0092587
60.32 -0.00799451
60.35 -0.00330137
60.38 0.00623421
60.41 0.0129633
60.44 -0.00401607
60.47 -0.011201
60.5 0.00888411
60.53 -0.00810739
60.56 -0.00881449
60.59 -0.000487279
60.62 0.00113643
60.65 -0.00785432
60.68 0.0140848
60.71 0.00592278
60.74 0.00232746
60.77 0.0123116
60.8 0.000260724
60.83 -0.00473962
60.86 -0.00879217
60.89 0.000437265
60.92 0.0163621
60.95 0.025251
60.98 0.0180715
61.01 -0.00093851
61.04 0.00321154
61.07 0.00180306
61.1 0.00210385
61.13 0.011685
61.16 0.000169745
61.19 0.00984322
61.22 0.010319
61.25 0.00736644
61.28 -0.00322794
61.31 0.0143384
61.34 -0.0122271
61.37 -0.00201404
61.4 0.00491377
61.43 0.00289815
61.46 0.0100723
61.49 0.00561339
61.52 0.0127368
61.55 0.0188367
61.58 -0.000431602
61.61 0.0118181
61.64 0.00241614
61.67 0.0148163
61.7 0.00797978
61.73 0.00121355
61.76 0.0211702
61.79 0.0347194
61.82 0.0261987
61.85 0.0192123
61.88 0.0306857
61.91 0.0143943
61.94 0.0196204
61.97 0.0302177
62 0.0171198
62.03 0.00786019
62.06 0.0170518
62.09 0.0016221
62.12 0.0136186
62.15 0.00834626
62.18 0.0218374
62.21 0.00439721
62.24 0.00299229
62.27 0.00515683
62.3 0.00567191
62.33 0.0185345
62.36 -0.00851
62.39 0.00383935
62.42 0.000501678
62.45 -0.0112051
62.48 0.00728442
62.51 0.0145085
62.54 0.00384049
62.57 0.000426467
62.6 -0.00420343
62.63 0.00128274
62.66 0.0210364
62.69 0.00167976
62.72 0.00350061
62.75 0.000879587
62.78 0.00383282
62.81 0.00223627
62.84 -0.0103552
62.87 -0.00650409
62.9 -0.0189254
62.93 -0.00179565
62.96 0.00208952
62.99 -0.00331543
63.02 -0.00205174
63.05 0.00396167
63.08 -0.00888419
63.11 -0.0194551