File: data/xrd/xy/2019-06-18T19_59_27.923270+00_00_LBL_F1.xy
'Id: "" Comment: "Integrate frame 20190716_acnh3_nprop_4flph_07_002.gfrmwith cursor Wedge Cursor #3" Operator: "UC Berkeley" Anode: "Co" Scantype: "TwoTheta" TimePerStep: "450"
13.905 -0.0294597
13.95 0.0261526
13.995 0.0916503
14.04 0.0527379
14.085 0.129099
14.13 0.0527374
14.175 -0.0271458
14.22 0.104125
14.265 0.0668703
14.31 0.115258
14.355 0.129496
14.4 0.167312
14.445 0.254241
14.49 0.358457
14.535 0.545669
14.58 0.829288
14.625 1.28317
14.67 2.12139
14.715 2.71638
14.76 2.79926
14.805 2.55271
14.85 1.90405
14.895 1.27485
14.94 0.587465
14.985 0.334942
15.03 0.129942
15.075 0.077506
15.12 0.11251
15.165 0.0728769
15.21 0.0449297
15.255 0.0978687
15.3 0.122855
15.345 0.124079
15.39 0.116629
15.435 0.0803401
15.48 0.0968922
15.525 0.0882493
15.57 0.067932
15.615 0.0374422
15.66 0.100989
15.705 0.0953446
15.75 0.0481494
15.795 0.0849721
15.84 0.0611987
15.885 0.0844814
15.93 0.0299676
15.975 0.0564152
16.02 0.060238
16.065 0.0824106
16.11 0.0690161
16.155 0.163793
16.2 -0.0130912
16.245 0.0223529
16.29 0.0323211
16.335 0.0633053
16.38 0.0457291
16.425 -0.0185293
16.47 0.0814494
16.515 0.0997735
16.56 -0.0113001
16.605 -0.0229236
16.65 0.0297963
16.695 0.0284628
16.74 0.0384126
16.785 0.0215395
16.83 0.0243172
16.875 0.0120008
16.92 0.0532316
16.965 0.0771537
17.01 0.0270996
17.055 0.076361
17.1 0.069272
17.145 0.0893322
17.19 0.0883085
17.235 0.00836873
17.28 0.0172062
17.325 0.0418069
17.37 0.0305211
17.415 0.0123632
17.46 0.0159357
17.505 0.0237018
17.55 0.0492163
17.595 -0.00509496
17.64 0.0473775
17.685 0.0625414
17.73 0.118382
17.775 0.0280894
17.82 0.0645875
17.865 0.0100561
17.91 0.125957
17.955 0.0481771
18 0.068864
18.045 0.0874414
18.09 0.123425
18.135 0.0930652
18.18 0.03918
18.225 0.0187654
18.27 0.011969
18.315 0.0219973
18.36 0.0645296
18.405 0.0642467
18.45 0.0611379
18.495 0.078931
18.54 0.0400648
18.585 0.0569162
18.63 0.0489981
18.675 0.0963806
18.72 0.0393983
18.765 0.00724215
18.81 0.0606064
18.855 0.0421621
18.9 0.0948608
18.945 0.0738893
18.99 0.0314265
19.035 0.0443865
19.08 0.0787426
19.125 0.017005
19.17 0.0667429
19.215 0.0517489
19.26 0.0319925
19.305 0.0654331
19.35 0.0570078
19.395 0.0558231
19.44 0.0696761
19.485 0.111767
19.53 0.00845282
19.575 0.0412605
19.62 0.049521
19.665 0.0312994
19.71 0.0767449
19.755 0.0964679
19.8 0.0432494
19.845 0.0399013
19.89 0.0974921
19.935 0.0445168
19.98 0.0653592
20.025 -0.00426455
20.07 0.0305098
20.115 0.0862099
20.16 0.0108472
20.205 0.00313794
20.25 0.0732984
20.295 0.0395935
20.34 0.0203719
20.385 -0.00732476
20.43 0.0604399
20.475 0.0327936
20.52 0.027852
20.565 0.0237843
20.61 0.0200094
20.655 -0.00148425
20.7 0.00542713
20.745 0.038689
20.79 0.02914
20.835 -0.0154422
20.88 0.0358612
20.925 0.0467545
20.97 0.0906738
21.015 0.023776
21.06 0.00509364
21.105 0.0704843
21.15 0.118559
21.195 0.04873
21.24 0.0214662
21.285 0.0504491
21.33 0.0795264
21.375 0.0160964
21.42 0.0381091
21.465 -0.0178887
21.51 0.00673305
21.555 0.142981
21.6 0.0560963
21.645 0.0353515
21.69 0.0459652
21.735 0.0560271
21.78 0.0241272
21.825 0.0983041
21.87 0.0100671
21.915 0.0373063
21.96 0.0449398
22.005 0.0850422
22.05 0.0830108
22.095 0.0896624
22.14 0.0471649
22.185 0.0654716
22.23 0.0710824
22.275 0.0749885
22.32 0.0494944
22.365 0.103623
22.41 0.00605456
22.455 0.05739
22.5 0.0340016
22.545 0.0176929
22.59 -0.00392
22.635 0.084605
22.68 0.0677796
22.725 0.0304951
22.77 0.0539192
22.815 0.0890732
22.86 0.0567656
22.905 0.074318
22.95 0.0592578
22.995 0.0708909
23.04 0.0511864
23.085 0.06364
23.13 0.0254314
23.175 0.0529476
23.22 0.0369279
23.265 0.022039
23.31 0.0235596
23.355 0.0325569
23.4 0.045217
23.445 0.0849288
23.49 0.011405
23.535 0.0139043
23.58 0.00443868
23.625 0.045975
23.67 -0.00887562
23.715 0.0680677
23.76 0.0438042
23.805 0.034118
23.85 0.0424063
23.895 0.0483885
23.94 0.0370996
23.985 0.0126122
24.03 0.0167898
24.075 0.0500501
24.12 0.0797532
24.165 0.0432797
24.21 0.0848901
24.255 0.0377784
24.3 0.0159258
24.345 0.0247021
24.39 0.021013
24.435 0.0799104
24.48 0.0117375
24.525 0.0391171
24.57 0.0199922
24.615 -0.0173135
24.66 0.0771339
24.705 0.0503896
24.75 0.0232057
24.795 0.0373726
24.84 0.0151342
24.885 0.0127982
24.93 0.0496857
24.975 0.0316038
25.02 0.0488961
25.065 -0.00144536
25.11 0.0244053
25.155 0.0512761
25.2 0.042855
25.245 0.0554553
25.29 -0.0102172
25.335 0.0260025
25.38 0.0564558
25.425 -0.00557076
25.47 0.0357433
25.515 0.0694155
25.56 0.0718065
25.605 0.0498131
25.65 0.0521668
25.695 0.0300173
25.74 0.0484729
25.785 0.0416964
25.83 0.0365692
25.875 0.0467438
25.92 0.0533748
25.965 0.0238102
26.01 0.00772625
26.055 0.0324845
26.1 0.0833737
26.145 0.147748
26.19 0.14442
26.235 0.153552
26.28 0.12084
26.325 0.116115
26.37 0.0522574
26.415 0.0183983
26.46 0.076693
26.505 0.0564681
26.55 0.0170662
26.595 0.0252146
26.64 -0.00179127
26.685 -0.0101396
26.73 0.0408411
26.775 0.0069337
26.82 0.03043
26.865 0.015176
26.91 0.0419284
26.955 0.0307955
27 0.0311878
27.045 0.0410064
27.09 0.0202678
27.135 -0.00638572
27.18 0.0492319
27.225 0.015611
27.27 0.0291199
27.315 0.0257975
27.36 0.0310518
27.405 0.0120555
27.45 0.0136493
27.495 0.0513835
27.54 0.0287797
27.585 0.0337248
27.63 -0.01552
27.675 0.014328
27.72 0.0723422
27.765 0.00680358
27.81 -0.0189951
27.855 0.0487856
27.9 0.000433311
27.945 -0.00895449
27.99 0.037202
28.035 0.00751338
28.08 -0.00128833
28.125 0.0124524
28.17 0.0434353
28.215 0.00197405
28.26 0.00351302
28.305 4.51631e-05
28.35 -0.00803103
28.395 -0.00127384
28.44 0.018031
28.485 0.0113325
28.53 0.00405543
28.575 0.0319541
28.62 0.0363292
28.665 0.0860446
28.71 -0.00144168
28.755 0.00876348
28.8 0.0638901
28.845 0.00885941
28.89 0.0720499
28.935 0.0647113
28.98 -0.005992
29.025 0.0512062
29.07 0.0229426
29.115 0.0385557
29.16 0.0563097
29.205 0.0356615
29.25 0.05494
29.295 0.0477238
29.34 0.0285056
29.385 0.0825692
29.43 0.0511278
29.475 0.0693866
29.52 0.080282
29.565 0.170649
29.61 0.389373
29.655 0.643117
29.7 1.02282
29.745 1.07416
29.79 1.07176
29.835 0.77515
29.88 0.477219
29.925 0.300499
29.97 0.285834
30.015 0.296378
30.06 0.521461
30.105 1.11306
30.15 2.06622
30.195 3.31238
30.24 4.01429
30.285 3.75333
30.33 2.67527
30.375 1.32994
30.42 0.620577
30.465 0.221331
30.51 0.116251
30.555 0.0836909
30.6 0.0576279
30.645 0.0568917
30.69 0.0503073
30.735 0.0232523
30.78 0.0497443
30.825 0.0299961
30.87 0.0467585
30.915 0.0748782
30.96 0.0185898
31.005 0.0710582
31.05 0.0637735
31.095 0.00619432
31.14 0.0407915
31.185 0.0299468
31.23 0.085598
31.275 0.0663129
31.32 0.028775
31.365 0.00650293
31.41 0.00665161
31.455 0.020008
31.5 0.0303796
31.545 0.0266898
31.59 0.0123816
31.635 0.0694851
31.68 0.0271462
31.725 -0.0244904
31.77 0.0482448
31.815 0.0487793
31.86 0.0303414
31.905 -0.0016346
31.95 0.0455171
31.995 0.0705299
32.04 0.00437669
32.085 0.0281181
32.13 0.029158
32.175 0.0117882
32.22 0.036477
32.265 0.0170853
32.31 -0.0128038
32.355 0.0442606
32.4 -0.0187013
32.445 0.0443842
32.49 0.0070392
32.535 0.0285422
32.58 0.0233253
32.625 0.028211
32.67 0.0415276
32.715 0.0681311
32.76 -0.0103646
32.805 0.0154668
32.85 0.00832828
32.895 -0.00132885
32.94 0.0466517
32.985 0.0492076
33.03 -0.00305238
33.075 0.00988389
33.12 0.0186381
33.165 0.0221467
33.21 -0.00540866
33.255 0.0212845
33.3 0.0380853
33.345 0.0408054
33.39 0.0498256
33.435 0.0450063
33.48 -0.00951461
33.525 0.0366294
33.57 0.0292125
33.615 0.0500374
33.66 0.00906933
33.705 0.016274
33.75 0.00299614
33.795 0.0264143
33.84 0.00478739
33.885 0.0227234
33.93 -0.0138405
33.975 0.0273025
34.02 -0.0132083
34.065 0.0463755
34.11 0.00831509
34.155 -0.00623955
34.2 0.0033848
34.245 0.022198
34.29 0.0128271
34.335 0.0427284
34.38 0.0333249
34.425 0.02354
34.47 0.0319333
34.515 0.013044
34.56 -0.00176162
34.605 0.0151592
34.65 0.0099483
34.695 -0.0157094
34.74 0.0290533
34.785 0.0266062
34.83 0.02413
34.875 0.0212572
34.92 0.0164357
34.965 0.0595658
35.01 0.0286646
35.055 0.0128956
35.1 0.0490742
35.145 0.0136406
35.19 0.0183963
35.235 0.0142663
35.28 0.042793
35.325 0.0244982
35.37 -0.0109329
35.415 0.0240667
35.46 -0.0017595
35.505 0.0264713
35.55 0.0403902
35.595 0.0303884
35.64 0.0183057
35.685 0.0257763
35.73 0.0136719
35.775 0.0245125
35.82 0.0352907
35.865 0.0393555
35.91 0.0231527
35.955 0.0498274
36 0.0358426
36.045 0.045236
36.09 0.0921775
36.135 0.0681022
36.18 0.0386668
36.225 0.0378363
36.27 0.0783454
36.315 0.0242298
36.36 0.0290455
36.405 0.00579206
36.45 0.0207702
36.495 0.00687149
36.54 0.00909262
36.585 -0.0047006
36.63 0.00808432
36.675 0.0261495
36.72 0.00829465
36.765 0.0115425
36.81 0.0103002
36.855 -0.01278
36.9 -0.00425057
36.945 0.0195449
36.99 0.0196546
37.035 0.0109208
37.08 -0.00234404
37.125 0.0261798
37.17 0.0137499
37.215 0.00414345
37.26 0.0412599
37.305 0.0418065
37.35 0.0226109
37.395 0.035087
37.44 0.0297596
37.485 0.0177942
37.53 0.0238093
37.575 0.0156173
37.62 -0.00376477
37.665 0.0308972
37.71 -0.0116665
37.755 0.0196432
37.8 0.025098
37.845 0.0205963
37.89 0.0161399
37.935 0.00109462
37.98 0.0226383
38.025 0.0205019
38.07 -0.000340533
38.115 -0.0051424
38.16 0.016912
38.205 -0.0163227
38.25 0.0213466
38.295 0.0100512
38.34 0.0265088
38.385 0.0185171
38.43 0.0334092
38.475 0.0282391
38.52 -0.00321919
38.565 0.00839374
38.61 0.0440603
38.655 -0.00859867
38.7 0.0136457
38.745 0.0191874
38.79 0.0543235
38.835 0.0391424
38.88 0.0224972
38.925 0.0170133
38.97 -0.00566953
39.015 0.0102181
39.06 0.0266927
39.105 0.0520403
39.15 0.028038
39.195 0.0273856
39.24 0.029367
39.285 0.00376703
39.33 0.019923
39.375 0.0289061
39.42 0.0655594
39.465 0.0565229
39.51 0.0664303
39.555 0.0620709
39.6 0.0533061
39.645 0.0880148
39.69 0.132876
39.735 0.180623
39.78 0.303733
39.825 0.521164
39.87 0.872364
39.915 1.43794
39.96 2.17795
40.005 3.04482
40.05 3.77151
40.095 4.06488
40.14 3.66581
40.185 2.75674
40.23 1.76124
40.275 0.953295
40.32 0.501397
40.365 0.289035
40.41 0.203362
40.455 0.0977332
40.5 0.0676223
40.545 0.0609612
40.59 0.0779497
40.635 0.031061
40.68 0.0249649
40.725 0.037587
40.77 0.0470884
40.815 0.033896
40.86 0.0161365
40.905 0.00437712
40.95 0.0073591
40.995 -0.00453012
41.04 0.0124758
41.085 -0.0226512
41.13 -0.002017
41.175 -0.0133978
41.22 0.0249387
41.265 0.0139367
41.31 0.0168252
41.355 -0.00934792
41.4 0.0570927
41.445 0.0304357
41.49 0.0325596
41.535 0.0109327
41.58 0.0160236
41.625 0.0209374
41.67 0.0216428
41.715 0.0204295
41.76 -0.0125347
41.805 0.0235089
41.85 0.0453888
41.895 0.0176448
41.94 0.0258242
41.985 0.0253942
42.03 0.0146666
42.075 0.0062924
42.12 0.0454297
42.165 0.00353268
42.21 0.00862154
42.255 0.002545
42.3 0.0106514
42.345 0.0373189
42.39 0.0177191
42.435 0.0017274
42.48 0.0517231
42.525 0.020379
42.57 0.0182338
42.615 0.0134679
42.66 0.0231412
42.705 0.0262501
42.75 0.0166371
42.795 0.0162011
42.84 0.0117611
42.885 0.060738
42.93 0.044046
42.975 0.0306316
43.02 0.0454434
43.065 0.0219176
43.11 0.0182788
43.155 0.00785628
43.2 0.0163313
43.245 0.00755189
43.29 0.0300374
43.335 0.0306737
43.38 0.00513548
43.425 0.000178062
43.47 0.0200427
43.515 0.0517109
43.56 0.0285625
43.605 -0.00373257
43.65 -0.00244494
43.695 0.00964062
43.74 0.00363142
43.785 -0.0222607
43.83 0.00862823
43.875 0.0212076
43.92 0.00888824
43.965 0.00313272
44.01 0.0179832
44.055 0.0113174
44.1 -0.0134496
44.145 -0.00939077
44.19 0.0189883
44.235 0.0143852
44.28 0.0071852
44.325 -0.00204275
44.37 0.0147386
44.415 -0.00165901
44.46 0.0386747
44.505 0.00593562
44.55 0.040412
44.595 0.00673762
44.64 0.00337288
44.685 0.0405766
44.73 0.09341
44.775 0.0644369
44.82 0.145953
44.865 0.181909
44.91 0.323734
44.955 0.528946
45 0.937209
45.045 1.59147
45.09 2.12703
45.135 2.67553
45.18 3.14407
45.225 3.87171
45.27 4.42511
45.315 4.22749
45.36 3.43592
45.405 2.58613
45.45 1.58372
45.495 0.820168
45.54 0.412611
45.585 0.208478
45.63 0.115656
45.675 0.0847683
45.72 0.061889
45.765 0.049938
45.81 0.0578264
45.855 0.000322426
45.9 0.00952219
45.945 0.0332875
45.99 0.0743846
46.035 0.13374
46.08 0.211351
46.125 0.297741
46.17 0.380336
46.215 0.504945
46.26 0.681436
46.305 0.786808
46.35 0.73807
46.395 0.580137
46.44 0.416596
46.485 0.255597
46.53 0.120194
46.575 0.079773
46.62 0.0393665
46.665 -0.00659919
46.71 0.0240966
46.755 0.0114381
46.8 0.0211293
46.845 0.0160778
46.89 0.00393233
46.935 -0.0186564
46.98 0.0131539
47.025 0.00451325
47.07 0.00717356
47.115 -0.0129313
47.16 0.0245713
47.205 0.00537108
47.25 0.0344781
47.295 0.0135889
47.34 0.0440009
47.385 0.00305458
47.43 0.0333879
47.475 0.0133772
47.52 0.00406844
47.565 0.0131151
47.61 0.0177585
47.655 0.0231538
47.7 0.00621044
47.745 0.0255616
47.79 0.0121519
47.835 -0.00561676
47.88 -0.000282901
47.925 0.010085
47.97 -0.00118624
48.015 -0.00205804
48.06 0.000354431
48.105 0.0156806
48.15 0.0123618
48.195 -0.0040764
48.24 0.00825491
48.285 0.0231288
48.33 0.00766757
48.375 0.00168547
48.42 0.00563417
48.465 0.0102911
48.51 0.0180893
48.555 0.0226969
48.6 0.0419143
48.645 0.0621985
48.69 0.07473
48.735 0.11757
48.78 0.123014
48.825 0.155235
48.87 0.17908
48.915 0.184773
48.96 0.195735
49.005 0.128881
49.05 0.0949998
49.095 0.0373344
49.14 0.00812142
49.185 0.0109498
49.23 -0.0117044
49.275 0.0038313
49.32 0.013025
49.365 0.00990226
49.41 0.00362257
49.455 0.018868
49.5 0.0135172
49.545 0.00356589
49.59 -0.00845672
49.635 0.0011407
49.68 0.00461319
49.725 0.00146441
49.77 0.00462284
49.815 -0.00635812
49.86 -0.0126715
49.905 0.00458871
49.95 0.00773911
49.995 -0.014493
50.04 -0.0113384
50.085 -0.00210724
50.13 0.0191275
50.175 -0.0166513
50.22 0.00274488
50.265 -0.00991011
50.31 -0.00188993
50.355 -0.00575537
50.4 -0.00727761
50.445 -0.00362799
50.49 0.00510689
50.535 0.00243576
50.58 -0.0126704
50.625 -0.000281813
50.67 -0.0120288
50.715 0.0135172
50.76 -0.00899347
50.805 -0.00243262
50.85 0.0120134
50.895 -0.00630293
50.94 0.0249734
50.985 0.0177739
51.03 0.0186264
51.075 0.015808
51.12 0.00949359
51.165 0.0130473
51.21 0.024073
51.255 -0.00532822
51.3 0.0117696
51.345 -0.00662555
51.39 -0.0200307
51.435 0.0272355
51.48 0.0153129
51.525 0.0177339
51.57 0.00522354
51.615 0.0263368
51.66 0.00838213
51.705 0.00658126
51.75 0.0135717
51.795 0.00506562
51.84 -0.00256351
51.885 0.0160606
51.93 -0.00589392
51.975 0.0148234
52.02 -0.0136961
52.065 0.00092022
52.11 0.00953123
52.155 0.00943438
52.2 -0.00709603
52.245 0.00766698
52.29 -0.0085842
52.335 0.00612384
52.38 0.0116709
52.425 0.0187932
52.47 0.0200711
52.515 0.0471852
52.56 0.052433
52.605 0.0731262
52.65 0.081549
52.695 0.14524
52.74 0.25126
52.785 0.349975
52.83 0.482127
52.875 0.599746
52.92 0.769081
52.965 0.984438
53.01 1.27977
53.055 1.5365
53.1 1.66543
53.145 1.65521
53.19 1.48855
53.235 1.19742
53.28 0.866771
53.325 0.588256
53.37 0.360256
53.415 0.189797
53.46 0.115131
53.505 0.0637328
53.55 0.0422539
53.595 0.0385947
53.64 0.00485494
53.685 0.0158002
53.73 0.00463114
53.775 0.00757029
53.82 -0.000100599
53.865 -0.000630353
53.91 -0.00146103
53.955 0.0110175
54 0.00976035
54.045 0.000505333
54.09 0.0134792
54.135 0.00742077
54.18 0.00940738
54.225 -0.00508893
54.27 0.00806958
54.315 0.0199835
54.36 0.00463961
54.405 0.0261318
54.45 -0.000765758
54.495 -0.0144904
54.54 0.0125687
54.585 -0.013504
54.63 -0.00795956
54.675 0.00836891
54.72 -0.0102654
54.765 -0.00323345
54.81 -0.00994486
54.855 -0.00961711
54.9 0.0161648
54.945 -0.00631616
54.99 -0.00920714
55.035 0.00244477
55.08 0.0206689
55.125 0.00860744
55.17 0.006417
55.215 -0.000199399
55.26 -0.00679649
55.305 -0.000211098
55.35 -0.00692444
55.395 0.00343649
55.44 0.0233952
55.485 -0.0163722
55.53 0.00928029
55.575 0.0176753
55.62 -0.0123021
55.665 0.00946734
55.71 0.0056384
55.755 0.0176169
55.8 0.021076
55.845 0.00750591
55.89 0.0426151
55.935 0.0600813
55.98 0.0893401
56.025 0.112086
56.07 0.170766
56.115 0.189139
56.16 0.219765
56.205 0.332646
56.25 0.381679
56.295 0.484532
56.34 0.518495
56.385 0.499763
56.43 0.399737
56.475 0.32275
56.52 0.198785
56.565 0.126407
56.61 0.0890376
56.655 0.0585344
56.7 0.0353045
56.745 0.0105068
56.79 0.00181624
56.835 0.000941249
56.88 0.000464293
56.925 0.00597692
56.97 0.0150852
57.015 0.0118512
57.06 0.0198701
57.105 0.00845729
57.15 0.0127378
57.195 0.00494021
57.24 0.0263999
57.285 -0.0187062
57.33 0.00659655
57.375 0.00348586
57.42 0.0162609
57.465 0.0195133
57.51 0.0207709
57.555 -0.00879833
57.6 0.00984427
57.645 0.0270024
57.69 0.0268436
57.735 -0.00439249
57.78 0.00893787
57.825 0.0143506
57.87 -0.00319439
57.915 0.0122305
57.96 0.0039035
58.005 0.00971164
58.05 0.0211711
58.095 0.0265967
58.14 0.00575317
58.185 -0.0104307
58.23 -0.00686539
58.275 -0.0134522
58.32 0.0241949
58.365 0.0328723
58.41 0.0214146
58.455 0.0123179
58.5 0.0249198
58.545 0.0129009
58.59 0.00709053
58.635 0.00557855
58.68 0.0201107
58.725 0.0277546
58.77 0.0229108
58.815 0.00752391
58.86 0.0276919
58.905 -0.0046452
58.95 -0.000479777
58.995 0.0169994
59.04 0.0351449
59.085 0.0309654
59.13 0.0180431
59.175 0.025221
59.22 0.0137848
59.265 0.0261652
59.31 0.0117918
59.355 0.00924601
59.4 0.0143539
59.445 0.0292434
59.49 0.009327
59.535 -0.00658831
59.58 0.0196902
59.625 0.00568964
59.67 0.00569588
59.715 0.0198985
59.76 0.00688607
59.805 -0.00117513
59.85 -0.00197149
59.895 0.015567
59.94 0.0112706
59.985 -0.000432146
60.03 0.015981
60.075 0.0253086
60.12 0.00369343
60.165 0.00822053
60.21 0.0084579
60.255 0.0218278
60.3 -0.0129336
60.345 0.0146867
60.39 0.0283424
60.435 0.0102996
60.48 -0.00681053
60.525 -0.000100601
60.57 0.0371858
60.615 0.00198727
60.66 -0.0141009
60.705 0.0326973
60.75 0.0257438
60.795 0.0208064
60.84 0.0169567
60.885 0.00509661
60.93 0.0263247
60.975 0.0216749
61.02 0.0344594
61.065 0.0330731
61.11 0.026207
61.155 0.03687
61.2 0.0695858
61.245 0.140127
61.29 0.221507
61.335 0.328102
61.38 0.495879
61.425 0.652016
61.47 0.766327
61.515 0.792572
61.56 0.876033
61.605 0.970618
61.65 1.11856
61.695 1.42041
61.74 1.72134
61.785 1.93726
61.83 1.82343
61.875 1.51915
61.92 1.274
61.965 0.915016
62.01 0.662027
62.055 0.415611
62.1 0.206515
62.145 0.131772
62.19 0.0772793
62.235 0.0456611
62.28 0.0529925
62.325 0.0159929
62.37 0.020327
62.415 0.0586033
62.46 0.0524622
62.505 0.0455852
62.55 0.0777484
62.595 0.0906142
62.64 0.143648
62.685 0.160784
62.73 0.190731
62.775 0.293826
62.82 0.33319
62.865 0.439724
62.91 0.399807
62.955 0.379374
63 0.350836
63.045 0.229254
63.09 0.183327
63.135 0.146011
63.18 0.0904828
63.225 0.0550402
63.27 0.0344372
63.315 0.0112925
63.36 0.0151896
63.405 -0.0105512
63.45 0.00185598
63.495 0.00225668
63.54 -0.00393198
63.585 -0.0121354
63.63 0.00334472
63.675 0.0033733
63.72 0.00253582
63.765 0.00384087
63.81 0.0042748
63.855 -0.00216974
63.9 -0.015854
63.945 -0.00368943
63.99 0.0225834
64.035 5.21839e-05
64.08 0.00453953
64.125 0.0123724
64.17 0.0184813
64.215 0.0139485
64.26 0.0180016
64.305 -0.00352061
64.35 0.0093734
64.395 -0.00690253
64.44 0.0211605
64.485 0.022972
64.53 0.0170302
64.575 0.000161326
64.62 -0.00820465
64.665 -0.00780194
64.71 0.015432
64.755 -0.00182071
64.8 -0.010861
64.845 0.0366499
64.89 0.000460712
64.935 0.0160705
64.98 0.0144155
65.025 0.0227656
65.07 0.0175121
65.115 0.022934
65.16 -0.00509889
65.205 0.0345853
65.25 0.0303007
65.295 0.0275173
65.34 0.0106748
65.385 0.0144707
65.43 0.0168719
65.475 0.0385175
65.52 0.0072935
65.565 0.00138651
65.61 0.00660801
65.655 0.0112231
65.7 0.0215036
65.745 0.016689
65.79 0.0173074
65.835 0.0174186
65.88 0.0165525
65.925 0.0187865
65.97 0.0174362
66.015 -0.00846166
66.06 0.0425258
66.105 0.00176978
66.15 0.00531143
66.195 0.017893
66.24 0.0555609
66.285 0.0342597
66.33 0.0977724
66.375 0.10036
66.42 0.117901
66.465 0.163399
66.51 0.207913
66.555 0.234919
66.6 0.306763
66.645 0.309547
66.69 0.364139
66.735 0.398891
66.78 0.410901
66.825 0.385659
66.87 0.390487
66.915 0.319413
66.96 0.277468
67.005 0.220351
67.05 0.128993
67.095 0.102742
67.14 0.0536922
67.185 0.0362628
67.23 0.0218862
67.275 0.0167861
67.32 0.0111873
67.365 0.0141644
67.41 -0.00531167
67.455 0.0299891
67.5 -0.00982397
67.545 0.00778272
67.59 0.0217899
67.635 0.00992626
67.68 0.01411
67.725 -0.00067701
67.77 0.0159003
67.815 0.00895563
67.86 0.0235584
67.905 0.0625615
67.95 0.0735929
67.995 0.078789
68.04 0.0739062
68.085 0.08903
68.13 0.124337
68.175 0.164386
68.22 0.144711
68.265 0.165836
68.31 0.209378
68.355 0.208812
68.4 0.187116
68.445 0.164663
68.49 0.138123
68.535 0.0758346
68.58 0.0712768
68.625 0.039909
68.67 0.0503339
68.715 0.0244607
68.76 0.0249963
68.805 0.0249308
68.85 0.00418645
68.895 0.0115761
68.94 0.0151498
68.985 0.00479531
69.03 0.0209062
69.075 -0.00557696
69.12 -0.0119164
69.165 0.0125867
69.21 0.0132412
69.255 0.0115987
69.3 0.00151504
69.345 0.0210081
69.39 -0.0159377
69.435 0.00185641
69.48 0.00735877
69.525 -0.000933739
69.57 0.0212548
69.615 0.0040262
69.66 0.00256668
69.705 0.0115717
69.75 0.0123825
69.795 -0.00131353
69.84 0.00126663
69.885 0.0105284
69.93 0.0114509
69.975 0.0161872
70.02 0.00804621
70.065 0.0052748
70.11 -0.00663776
70.155 0.0118516
70.2 0.00493269
70.245 0.0223181
70.29 0.01882
70.335 -0.00831152
70.38 0.00791229
70.425 0.0385176
70.47 0.0356809
70.515 -0.00386504
70.56 0.010164
70.605 0.00949316
70.65 0.0115719
70.695 -0.0127057
70.74 -0.000195576
70.785 0.0259626
70.83 0.0113464
70.875 0.00800951
70.92 0.00599818
70.965 -0.00560289
71.01 0.0125345
71.055 0.0156939
71.1 0.01748
71.145 0.0108099
71.19 -0.0148262
71.235 0.00203196
71.28 0.00504284
71.325 0.00325069
71.37 0.00453357
71.415 -0.00111395
71.46 0.0263265
71.505 0.00814765
71.55 -0.0156316
71.595 -0.00309415
71.64 0.0205267
71.685 0.0221455
71.73 0.00579164
71.775 0.00483863
71.82 0.0106226
71.865 0.00915065
71.91 -0.00124853
71.955 -0.0034129
72 -0.00740866
72.045 0.0126244
72.09 0.00426544
72.135 0.00967877
72.18 -0.00155973
72.225 -0.00784158
72.27 -0.0111285
72.315 0.00574079
72.36 0.00964955
72.405 0.0135338
72.45 0.00785339
72.495 -0.00158382
72.54 0.0304498
72.585 0.0415362
72.63 0.0425605
72.675 0.0457017
72.72 0.059683
72.765 0.0600243
72.81 0.0709058
72.855 0.0991892
72.9 0.116708
72.945 0.138524
72.99 0.121421
73.035 0.143011
73.08 0.183228
73.125 0.164895
73.17 0.172219
73.215 0.176511
73.26 0.150165
73.305 0.123206
73.35 0.114425
73.395 0.0673064
73.44 0.0391264
73.485 0.0457277
73.53 0.0263137
73.575 0.0181692
73.62 0.0262366
73.665 0.0166025
73.71 0.0193319
73.755 0.0184728
73.8 0.00867563
73.845 -0.0154022
73.89 -0.000562945
73.935 0.0369495
73.98 0.00887009
74.025 0.00544622
74.055 -0.0162051