File: data/xrd/xy/2019-06-27T12_52_20.503028+00_00_LBL_A8.xy
'Id: "" Comment: "Integrate frame 4_methoxyph_I_Fa_Br_02_002.gfrmwith cursor Wedge Cursor #1" Operator: "UC Berkeley" Anode: "Co" Scantype: "TwoTheta" TimePerStep: "400"
14.095 -0.0311239
14.135 0.0397908
14.175 -0.0228176
14.215 0.0608429
14.255 0.0729928
14.295 0.00957241
14.335 0.149088
14.375 0.123649
14.415 0.0899764
14.455 -0.029809
14.495 0.0402269
14.535 0.0716204
14.575 0.0381463
14.615 0.0456046
14.655 0.012204
14.695 0.122038
14.735 0.0919114
14.775 0.105327
14.815 0.0141675
14.855 0.0489566
14.895 0.0615142
14.935 0.0626232
14.975 0.0788976
15.015 0.0406727
15.055 0.0582024
15.095 -0.00964759
15.135 0.126733
15.175 0.0725007
15.215 0.0629455
15.255 0.068108
15.295 0.0447459
15.335 0.0670518
15.375 0.0452066
15.415 0.0467393
15.455 0.070377
15.495 -0.00378644
15.535 0.107259
15.575 0.014526
15.615 0.0531828
15.655 0.0655795
15.695 0.0584891
15.735 0.0491665
15.775 0.0265618
15.815 0.0787486
15.855 0.0209041
15.895 0.0583192
15.935 0.0590326
15.975 0.0538008
16.015 0.0817635
16.055 0.128721
16.095 0.0485732
16.135 0.0621366
16.175 0.017548
16.215 0.0680059
16.255 0.0392797
16.295 -0.0016961
16.335 0.0551747
16.375 0.0541977
16.415 0.106605
16.455 0.0618033
16.495 0.0430925
16.535 0.062966
16.575 0.0213879
16.615 0.046694
16.655 0.0211279
16.695 0.0408951
16.735 0.0449708
16.775 0.0321276
16.815 0.0297857
16.855 0.0525403
16.895 0.0779442
16.935 0.0697328
16.975 0.0632869
17.015 0.108304
17.055 0.0488946
17.095 0.0495176
17.135 0.046825
17.175 0.0953936
17.215 0.0245642
17.255 0.00573035
17.295 0.0746794
17.335 0.029622
17.375 0.0106024
17.415 -0.00575046
17.455 -0.00629701
17.495 -0.00803757
17.535 0.0635444
17.575 -0.00354017
17.615 0.0568877
17.655 0.00858247
17.695 0.0455644
17.735 0.0259073
17.775 -0.0240285
17.815 0.0697972
17.855 0.028037
17.895 0.0716052
17.935 -0.00499476
17.975 0.0718286
18.015 3.01706e-05
18.055 0.0279836
18.095 0.0468513
18.135 0.0551074
18.175 0.0399202
18.215 0.0748773
18.255 0.00137866
18.295 0.0246634
18.335 0.0408052
18.375 -0.00471998
18.415 0.0780303
18.455 0.0344001
18.495 0.0299765
18.535 -0.00154884
18.575 0.0624702
18.615 0.0399405
18.655 -0.0164582
18.695 0.0934256
18.735 0.0924383
18.775 0.0821632
18.815 0.0715263
18.855 0.0857219
18.895 0.095808
18.935 -0.00676852
18.975 0.133367
19.015 0.136218
19.055 -0.010281
19.095 0.019336
19.135 0.0447698
19.175 0.100845
19.215 0.00814876
19.255 0.0504328
19.295 -0.0313388
19.335 0.110712
19.375 0.0564109
19.415 -0.0122452
19.455 0.0469469
19.495 0.0232309
19.535 0.0494182
19.575 0.0286579
19.615 0.0410679
19.655 0.0574925
19.695 0.0337663
19.735 0.057111
19.775 0.0690618
19.815 0.0550555
19.855 0.118379
19.895 0.12228
19.935 0.100632
19.975 0.107009
20.015 0.149023
20.055 0.26061
20.095 0.308055
20.135 0.451285
20.175 0.551825
20.215 0.585597
20.255 0.553182
20.295 0.395949
20.335 0.359513
20.375 0.19281
20.415 0.229061
20.455 0.126458
20.495 0.100289
20.535 0.118706
20.575 0.0911379
20.615 0.0844733
20.655 0.062883
20.695 0.0287503
20.735 0.176977
20.775 -0.0370657
20.815 0.0727827
20.855 0.0516243
20.895 0.110959
20.935 0.102715
20.975 0.0493315
21.015 0.0933938
21.055 0.0533454
21.095 0.0846983
21.135 0.172355
21.175 0.156436
21.215 0.261305
21.255 0.25616
21.295 0.237795
21.335 0.277458
21.375 0.189095
21.415 0.146928
21.455 0.0673666
21.495 0.0131077
21.535 0.0899744
21.575 0.0558698
21.615 0.0339796
21.655 0.15597
21.695 -0.00326757
21.735 0.0604265
21.775 0.0216702
21.815 0.0600634
21.855 0.0158836
21.895 -0.0131437
21.935 0.00856044
21.975 0.0587774
22.015 0.0187514
22.055 -0.00147384
22.095 0.0204927
22.135 -0.0193019
22.175 0.0259863
22.215 0.0325625
22.255 -0.0161743
22.295 -0.00699503
22.335 0.0613082
22.375 0.0478698
22.415 0.108268
22.455 0.0752832
22.495 0.0732006
22.535 0.0368584
22.575 0.0566546
22.615 0.0598883
22.655 0.0871448
22.695 0.108851
22.735 0.0659082
22.775 -0.0168819
22.815 0.144986
22.855 0.0141411
22.895 0.0775725
22.935 -0.000868769
22.975 0.0335268
23.015 0.0572501
23.055 0.0424622
23.095 0.0578357
23.135 0.0374829
23.175 0.108305
23.215 0.0596341
23.255 0.09847
23.295 0.16204
23.335 0.0766246
23.375 0.0602159
23.415 0.117306
23.455 0.151704
23.495 0.0673016
23.535 0.0133768
23.575 0.0393773
23.615 0.0358665
23.655 0.0405541
23.695 0.0709278
23.735 0.041878
23.775 0.118578
23.815 -0.0298046
23.855 0.0713305
23.895 0.0593802
23.935 0.0232865
23.975 0.0281486
24.015 0.10711
24.055 0.0895296
24.095 0.0460376
24.135 0.109077
24.175 0.077024
24.215 0.0559581
24.255 0.0268653
24.295 0.156722
24.335 0.0916747
24.375 0.071766
24.415 0.0541365
24.455 0.0612649
24.495 0.130306
24.535 0.0439296
24.575 0.0306521
24.615 0.00982525
24.655 0.021665
24.695 0.0160781
24.735 0.0752628
24.775 0.0580102
24.815 0.0297565
24.855 0.0371567
24.895 0.00559963
24.935 0.105
24.975 0.0547349
25.015 0.18
25.055 0.174708
25.095 0.154312
25.135 0.234919
25.175 0.420684
25.215 0.721553
25.255 1.27468
25.295 1.70848
25.335 2.03913
25.375 2.01664
25.415 1.62243
25.455 1.28547
25.495 0.771079
25.535 0.480159
25.575 0.410102
25.615 0.325072
25.655 0.312186
25.695 0.243508
25.735 0.182726
25.775 0.198119
25.815 0.144923
25.855 0.13147
25.895 0.100827
25.935 0.248956
25.975 0.244546
26.015 0.251475
26.055 0.266042
26.095 0.253854
26.135 0.219453
26.175 0.130769
26.215 0.0945878
26.255 0.172424
26.295 0.107715
26.335 0.0420363
26.375 0.0878672
26.415 0.0436835
26.455 0.00591942
26.495 0.0436965
26.535 0.0767489
26.575 0.0812474
26.615 0.0989233
26.655 0.0116727
26.695 -0.000775202
26.735 0.0413751
26.775 0.0511715
26.815 0.0379231
26.855 0.0655674
26.895 0.0151506
26.935 0.000665035
26.975 0.0731683
27.015 0.0565233
27.055 0.0667921
27.095 0.00491771
27.135 0.0913608
27.175 0.109897
27.215 0.159997
27.255 0.1383
27.295 0.110552
27.335 0.0186358
27.375 0.0921872
27.415 0.062904
27.455 0.0913968
27.495 0.0512746
27.535 -0.0112821
27.575 0.0123566
27.615 0.106281
27.655 0.0360909
27.695 0.206145
27.735 0.073169
27.775 0.131815
27.815 0.0704117
27.855 0.181179
27.895 0.362724
27.935 0.561479
27.975 0.973184
28.015 1.87963
28.055 2.93567
28.095 4.14768
28.135 4.70791
28.175 4.43597
28.215 3.45955
28.255 2.12719
28.295 1.3213
28.335 0.844455
28.375 0.5819
28.415 0.408767
28.455 0.319666
28.495 0.254099
28.535 0.265923
28.575 0.181353
28.615 0.0988848
28.655 0.226718
28.695 0.173956
28.735 0.212896
28.775 0.203136
28.815 0.251214
28.855 0.115822
28.895 0.163033
28.935 0.070027
28.975 0.0744825
29.015 0.135597
29.055 0.135463
29.095 0.0641749
29.135 0.0907395
29.175 0.0230727
29.215 0.0709693
29.255 0.0635092
29.295 0.0621352
29.335 0.0872723
29.375 0.176127
29.415 0.0810897
29.455 0.208291
29.495 0.227997
29.535 0.133684
29.575 0.118153
29.615 0.167819
29.655 0.0617772
29.695 0.088011
29.735 0.037451
29.775 0.0831242
29.815 0.048296
29.855 0.0832264
29.895 0.0675887
29.935 0.125094
29.975 0.177902
30.015 0.0807105
30.055 0.0875564
30.095 0.0692015
30.135 0.105429
30.175 0.130793
30.215 0.0671382
30.255 0.187669
30.295 0.0958536
30.335 0.185747
30.375 0.317789
30.415 0.492452
30.455 0.813413
30.495 1.08603
30.535 1.31111
30.575 1.18339
30.615 0.843737
30.655 0.647653
30.695 0.347553
30.735 0.202536
30.775 0.112412
30.815 0.126535
30.855 0.106867
30.895 0.0445836
30.935 0.0794129
30.975 0.0526009
31.015 0.0714342
31.055 0.0478769
31.095 -0.00173721
31.135 0.00799078
31.175 0.0454147
31.215 -0.00109553
31.255 0.0136251
31.295 0.019066
31.335 0.0283796
31.375 -0.0136644
31.415 -0.0246454
31.455 0.0312449
31.495 0.0416093
31.535 0.0488262
31.575 0.0436788
31.615 0.04655
31.655 -0.0231497
31.695 0.0211265
31.735 0.0209976
31.775 0.0727766
31.815 0.026121
31.855 -0.00851448
31.895 0.0246045
31.935 0.0381038
31.975 -0.0146066
32.015 0.086242
32.055 0.00432028
32.095 0.0118836
32.135 -0.0121115
32.175 -0.000779287
32.215 0.0133369
32.255 0.0307235
32.295 0.0026214
32.335 -0.0012987
32.375 0.0696872
32.415 0.0044008
32.455 0.0256881
32.495 0.0365079
32.535 0.0782981
32.575 0.0530552
32.615 0.0442681
32.655 0.0900537
32.695 0.107299
32.735 0.130237
32.775 0.129489
32.815 0.202459
32.855 0.304517
32.895 0.532793
32.935 0.741094
32.975 1.39844
33.015 1.9738
33.055 2.69485
33.095 2.93196
33.135 2.6932
33.175 2.17423
33.215 1.49808
33.255 0.930592
33.295 0.637569
33.335 0.416885
33.375 0.352309
33.415 0.355015
33.455 0.546231
33.495 0.668505
33.535 0.972684
33.575 1.03832
33.615 1.02619
33.655 0.823797
33.695 0.587569
33.735 0.34281
33.775 0.213207
33.815 0.141274
33.855 0.0838523
33.895 0.0344025
33.935 0.0545062
33.975 0.0927956
34.015 0.0216107
34.055 0.0439657
34.095 0.0403459
34.135 0.0875864
34.175 0.158096
34.215 0.203577
34.255 0.202334
34.295 0.168843
34.335 0.159257
34.375 0.100748
34.415 0.100698
34.455 0.0490919
34.495 0.0712875
34.535 0.0537111
34.575 0.028795
34.615 0.0673584
34.655 -0.0226057
34.695 -0.0268658
34.735 -0.0214796
34.775 0.00126429
34.815 0.00140076
34.855 0.00867722
34.895 -0.00815022
34.935 0.00360519
34.975 -0.0242332
35.015 -0.0177016
35.055 0.0112263
35.095 -0.0159764
35.135 -0.0297524
35.175 -0.00166005
35.215 0.0155593
35.255 0.00799043
35.295 0.00262305
35.335 0.00318328
35.375 0.0219126
35.415 0.0379359
35.455 -0.00806942
35.495 -0.00925789
35.535 0.0246715
35.575 0.00481985
35.615 0.0637418
35.655 0.0306475
35.695 0.0882733
35.735 0.116706
35.775 0.167644
35.815 0.144012
35.855 0.126648
35.895 0.0797304
35.935 0.0636263
35.975 0.043687
36.015 0.0619158
36.055 0.0395109
36.095 0.0517514
36.135 0.0312352
36.175 0.0629241
36.215 0.0375903
36.255 0.056551
36.295 0.0521434
36.335 0.04248
36.375 0.0375664
36.415 0.0372793
36.455 0.0693159
36.495 0.00867281
36.535 -0.000661507
36.575 0.0196168
36.615 0.00506351
36.655 -0.00388307
36.695 0.0159166
36.735 0.00212369
36.775 -0.0165766
36.815 0.00552889
36.855 0.00150851
36.895 0.0264066
36.935 0.0340797
36.975 0.0138959
37.015 0.00710614
37.055 0.00696133
37.095 0.0154183
37.135 -0.0335471
37.175 0.0109364
37.215 0.0168078
37.255 0.0229448
37.295 -0.00485464
37.335 -0.0195976
37.375 -0.00134962
37.415 0.0248375
37.455 -0.00537499
37.495 0.00268995
37.535 -0.0231532
37.575 0.0142475
37.615 0.0155402
37.655 0.040634
37.695 0.027665
37.735 0.025854
37.775 0.0538566
37.815 0.0730811
37.855 0.132073
37.895 0.191258
37.935 0.316868
37.975 0.524673
38.015 0.596298
38.055 0.700344
38.095 0.716227
38.135 0.615004
38.175 0.489522
38.215 0.355189
38.255 0.202329
38.295 0.134215
38.335 0.105165
38.375 0.118431
38.415 0.0463581
38.455 0.0518665
38.495 0.0746878
38.535 0.0522744
38.575 0.0542567
38.615 0.0535706
38.655 0.0323216
38.695 0.0587266
38.735 0.0849691
38.775 0.0457459
38.815 0.0757946
38.855 0.0974014
38.895 0.0632826
38.935 0.0774175
38.975 0.0617325
39.015 0.063094
39.055 0.0706348
39.095 0.0241822
39.135 0.0438168
39.175 0.0268124
39.215 0.0541062
39.255 0.0825476
39.295 0.0552963
39.335 0.0244687
39.375 0.0386096
39.415 -0.0132876
39.455 0.00973365
39.495 0.00318256
39.535 -0.00509664
39.575 0.0108501
39.615 0.013
39.655 0.00471916
39.695 -0.00537738
39.735 0.0248998
39.775 0.0300423
39.815 -0.0185143
39.855 0.00240107
39.895 0.0114864
39.935 0.0181643
39.975 0.0565662
40.015 0.0743446
40.055 0.0858317
40.095 0.0991578
40.135 0.0770112
40.175 0.08545
40.215 0.0435421
40.255 0.0346136
40.295 -0.00687402
40.335 0.0272848
40.375 0.0367429
40.415 0.00358976
40.455 0.00399637
40.495 0.00360608
40.535 0.0196734
40.575 0.025099
40.615 0.0264658
40.655 -0.00205755
40.695 0.0553202
40.735 0.0626695
40.775 0.0718605
40.815 0.067442
40.855 0.0480209
40.895 0.0118052
40.935 0.0259095
40.975 0.0343196
41.015 -0.0118323
41.055 0.00332737
41.095 0.0265505
41.135 -0.00959605
41.175 0.0170515
41.215 0.017454
41.255 0.0592905
41.295 0.0915381
41.335 0.169214
41.375 0.247519
41.415 0.264785
41.455 0.289077
41.495 0.238213
41.535 0.235559
41.575 0.187879
41.615 0.0962963
41.655 0.143786
41.695 0.0535799
41.735 0.00358443
41.775 0.022587
41.815 0.0274033
41.855 0.0687269
41.895 -0.00223691
41.935 -0.011038
41.975 -0.0142621
42.015 0.028298
42.055 0.0314664
42.095 0.0412426
42.135 -0.0027818
42.175 0.0302196
42.215 0.0309757
42.255 0.00378495
42.295 -0.0116607
42.335 -0.00649639
42.375 0.0525238
42.415 -0.00776765
42.455 0.0270276
42.495 0.0438573
42.535 0.0196301
42.575 0.0102443
42.615 0.0111724
42.655 0.0366697
42.695 0.0228598
42.735 0.0256547
42.775 0.00513015
42.815 0.0252542
42.855 0.0177809
42.895 0.0509174
42.935 0.0218454
42.975 0.0266674
43.015 0.0134113
43.055 -0.00502586
43.095 0.00981796
43.135 0.00961622
43.175 0.0203851
43.215 -0.0162291
43.255 0.0211986
43.295 0.0315054
43.335 0.0153261
43.375 -0.0219562
43.415 0.00673574
43.455 0.0430457
43.495 -0.0138383
43.535 0.0134709
43.575 0.0123894
43.615 0.0251392
43.655 0.050379
43.695 0.0322836
43.735 0.0656827
43.775 0.0847971
43.815 0.0569089
43.855 0.0632981
43.895 0.0805433
43.935 0.0500931
43.975 0.0556038
44.015 0.0408355
44.055 0.0433364
44.095 -0.015936
44.135 -0.0150865
44.175 -0.00636423
44.215 0.0303578
44.255 -0.00161784
44.295 0.0161242
44.335 0.0156894
44.375 0.01923
44.415 0.0294632
44.455 0.0226885
44.495 0.0333704
44.535 0.0753862
44.575 0.160757
44.615 0.163879
44.655 0.283412
44.695 0.221843
44.735 0.233922
44.775 0.245066
44.815 0.148421
44.855 0.188858
44.895 0.105939
44.935 0.0620089
44.975 0.102967
45.015 0.0436943
45.055 0.0806225
45.095 0.122273
45.135 0.146836
45.175 0.102508
45.215 0.154642
45.255 0.167134
45.295 0.0618853
45.335 0.0706685
45.375 0.0939097
45.415 0.0425724
45.455 0.0155055
45.495 0.0101674
45.535 0.037887
45.575 0.071051
45.615 0.0978242
45.655 0.129854
45.695 0.104505
45.735 0.136502
45.775 0.16756
45.815 0.245287
45.855 0.197659
45.895 0.197044
45.935 0.153214
45.975 0.209542
46.015 0.142261
46.055 0.19473
46.095 0.158071
46.135 0.199157
46.175 0.142951
46.215 0.192172
46.255 0.207093
46.295 0.216134
46.335 0.25267
46.375 0.311623
46.415 0.278218
46.455 0.267823
46.495 0.261929
46.535 0.22966
46.575 0.204474
46.615 0.151191
46.655 0.156157
46.695 0.130747
46.735 0.0868868
46.775 0.0808125
46.815 0.0353622
46.855 0.0100153
46.895 0.0452523
46.935 0.0509522
46.975 -0.0310116
47.015 0.000321637
47.055 0.0325738
47.095 0.0220297
47.135 0.00573534
47.175 -0.0215991
47.215 0.00407548
47.255 -0.0188404
47.295 0.012813
47.335 0.00268746
47.375 0.00452019
47.415 0.0131505
47.455 0.0119781
47.495 0.0036342
47.535 -0.0190012
47.575 0.00139094
47.615 0.0228348
47.655 0.0188226
47.695 0.0120327
47.735 -0.00992452
47.775 -0.0110358
47.815 0.00404165
47.855 -0.000951693
47.895 -0.0190769
47.935 0.00881128
47.975 -0.0240524
48.015 0.0240546
48.055 0.0112123
48.095 -0.00315225
48.135 0.00493271
48.175 0.0183277
48.215 0.0750732
48.255 0.0722006
48.295 0.10895
48.335 0.101991
48.375 0.115295
48.415 0.112049
48.455 0.112439
48.495 0.102872
48.535 0.10182
48.575 0.139178
48.615 0.106247
48.655 0.104837
48.695 0.132927
48.735 0.102456
48.775 0.121648
48.815 0.119141
48.855 0.0987646
48.895 0.116158
48.935 0.0852662
48.975 0.0746246
49.015 0.0925659
49.055 0.0882128
49.095 0.0955626
49.135 0.0768568
49.175 0.107706
49.215 0.160201
49.255 0.106654
49.295 0.157494
49.335 0.134962
49.375 0.118378
49.415 0.108269
49.455 0.114624
49.495 0.0704483
49.535 0.0974624
49.575 0.052863
49.615 0.0329089
49.655 0.0651618
49.695 0.0288359
49.735 0.0189556
49.775 0.0219377
49.815 0.00354192
49.855 -0.00108793
49.895 0.0126694
49.935 -0.00634207
49.975 -0.00576586
50.015 0.010073
50.055 -0.00911339
50.095 -0.0147625
50.135 0.00110375
50.175 0.000844186
50.215 0.0309621
50.255 -0.00135737
50.295 0.0168586
50.335 0.048702
50.375 0.0716299
50.415 0.0642027
50.455 0.0670376
50.495 0.0935282
50.535 0.0737192
50.575 0.0992138
50.615 0.0774566
50.655 0.0800939
50.695 0.077971
50.735 0.0785893
50.775 0.0853038
50.815 0.0356798
50.855 0.0440041
50.895 0.0196504
50.935 -0.00748406
50.975 0.0327044
51.015 -0.00682481
51.055 0.027713
51.095 0.0152768
51.135 -0.00592141
51.175 0.0145674
51.215 -0.00118583
51.255 0.0226355
51.295 0.0147406
51.335 0.0153951
51.375 0.030064
51.415 0.00719413
51.455 0.00177777
51.495 -0.0281742
51.535 -0.00756823
51.575 0.00527742
51.615 -0.00795106
51.655 -0.0155006
51.695 0.0158476
51.735 0.00841541
51.775 0.0111369
51.815 0.00101893
51.855 -0.0293284
51.895 -0.0052171
51.935 0.012645
51.975 0.0164125
52.015 0.0133072
52.055 0.0519947
52.095 0.0194433
52.135 0.0770821
52.175 0.0765635
52.215 0.0794335
52.255 0.127046
52.295 0.111441
52.335 0.138869
52.375 0.105615
52.415 0.0993411
52.455 0.0589946
52.495 0.0525321
52.535 0.0460189
52.575 0.0192681
52.615 0.0271549
52.655 0.0215443
52.695 0.0212504
52.735 0.00175645
52.775 0.00694183
52.815 -0.0295539
52.855 0.0170625
52.895 -0.00218623
52.935 0.0116348
52.975 -0.00506657
53.015 0.0111643
53.055 0.0149048
53.095 -0.011203
53.135 -0.00480036
53.175 0.00472718
53.215 -0.00279449
53.255 -0.00590143
53.295 0.0228598
53.335 0.0196806
53.375 0.0524248
53.415 0.0185661
53.455 0.0480603
53.495 0.0443774
53.535 0.0506547
53.575 0.0660918
53.615 0.0407685
53.655 0.0325855
53.695 0.0221404
53.735 -0.0067555
53.775 0.00616466
53.815 -0.000671574
53.855 -0.00498625
53.895 -0.0172968
53.935 -0.00816393
53.975 0.00762883
54.015 0.0202293
54.055 0.000763581
54.095 0.00390176
54.135 -0.0109041
54.175 -0.00667262
54.215 0.0317507
54.255 0.0221113
54.295 0.0185324
54.335 0.0207473
54.375 0.0144834
54.415 0.0254903
54.455 0.075934
54.495 0.0554464
54.535 0.0619409
54.575 0.0409923
54.615 0.0466216
54.655 0.0346113
54.695 0.0450994
54.735 0.0515115
54.775 0.0486701
54.815 0.03825
54.855 0.0363835
54.895 0.0168671
54.935 0.0318353
54.975 0.0278875
55.015 0.0322688
55.055 0.0192154
55.095 0.027855
55.135 0.0382027
55.175 -0.0157911
55.215 0.0233241
55.255 -0.0279912
55.295 0.0114473
55.335 0.041577
55.375 0.00968138
55.415 0.0340919
55.455 0.0326166
55.495 0.0299777
55.535 -0.00707826
55.575 -0.00889394
55.615 0.030759
55.655 -0.00167667
55.695 0.0292592
55.735 0.00701438
55.775 0.030299
55.815 0.00931859
55.855 0.00879197
55.895 0.00474565
55.935 0.00366189
55.975 0.0082161
56.015 0.017552
56.055 0.0235068
56.095 0.0303583
56.135 0.043592
56.175 -0.00369384
56.215 0.034828
56.255 0.0121942
56.295 0.0215594
56.335 0.00415151
56.375 0.032339
56.415 0.0169945
56.455 0.0204729
56.495 0.0572452
56.535 0.00420945
56.575 0.038727
56.615 0.0186286
56.655 0.0214819
56.695 0.0241958
56.735 0.0335657
56.775 0.0355292
56.815 0.026933
56.855 0.0683674
56.895 0.0590804
56.935 0.0565614
56.975 0.061992
57.015 0.0946349
57.055 0.125511
57.095 0.0941073
57.135 0.0958687
57.175 0.082529
57.215 0.0893909
57.255 0.0918485
57.295 0.0764486
57.335 0.0870379
57.375 0.0843329
57.415 0.0877701
57.455 0.0937153
57.495 0.0614682
57.535 0.0597166
57.575 0.0717866
57.615 0.0921278
57.655 0.07461
57.695 0.0847189
57.735 0.0722091
57.775 0.0883151
57.815 0.0741995
57.855 0.0908471
57.895 0.0927803
57.935 0.0729261
57.975 0.0760002
58.015 0.0685144
58.055 0.0738579
58.095 0.0924162
58.135 0.0744714
58.175 0.0677059
58.215 0.071134
58.255 0.0932617
58.295 0.0899474
58.335 0.0674394
58.375 0.0424517
58.415 0.0439468
58.455 0.0390485
58.495 0.0200995
58.535 0.0475195
58.575 0.016912
58.615 0.0119698
58.655 0.0257923
58.695 0.0459992
58.735 0.00685092
58.775 0.0109745
58.815 0.0437821
58.855 0.0355008
58.895 0.0426935
58.935 0.0181013
58.975 0.0370693
59.015 0.00752077
59.055 0.0272674
59.095 0.0168869
59.135 -0.000644142
59.175 0.0311536
59.215 0.0395742
59.255 0.0231607
59.295 0.00881699
59.335 -0.0106606
59.375 0.030584
59.415 0.0356477
59.455 0.0305874
59.495 -0.0259618
59.535 -0.00736856
59.575 0.0262378
59.615 0.0386279
59.655 0.0526731
59.695 0.0289737
59.735 0.0807123
59.775 0.0406795
59.815 0.0700432
59.855 0.0618068
59.895 0.0471707
59.935 0.0840226
59.975 0.0646002
60.015 0.050236
60.055 0.0491154
60.095 0.0565342
60.135 0.0373225
60.175 0.0206065
60.215 0.0580193
60.255 0.0343577
60.295 0.0488208
60.335 0.0248932
60.375 0.0476287
60.415 -0.00745372
60.455 0.0235214
60.495 0.0302902
60.535 0.034068
60.575 0.030706
60.615 -0.00972166
60.655 0.00399818
60.695 0.00385778
60.735 0.0210362
60.775 0.00743384
60.815 0.0222603
60.855 0.0126844
60.895 0.0175429
60.935 0.0121851
60.975 0.0152219
61.015 0.0115988
61.055 -0.0143885
61.095 -0.00451918
61.135 0.0316174
61.175 0.0190423
61.215 0.0506912
61.255 0.0333217
61.295 0.0132184
61.335 0.0390455
61.375 0.0287981
61.415 0.0242888
61.455 0.0360095
61.495 0.0150659
61.535 0.0265905
61.575 0.0092005
61.615 0.0557666
61.655 0.0465548
61.695 0.0299302
61.735 0.00495041
61.775 0.00016095
61.815 -0.00225743
61.855 -0.000492587
61.895 0.0250275
61.935 0.026816
61.975 0.0286032
62.015 0.0227206
62.055 0.0107954
62.095 0.000148435
62.135 0.012604
62.175 -0.00998879
62.215 0.00670048
62.255 0.00333596
62.295 0.00363808
62.335 -0.00252722
62.375 0.0148265
62.415 -0.0166968
62.455 0.0248048
62.495 0.0119712
62.535 0.00684789
62.575 -0.000889705
62.615 -0.00164695
62.655 0.00143465
62.695 0.0207523
62.735 0.00356438
62.775 0.00648293
62.815 -0.00874668
62.855 -0.0158689
62.895 -0.0142574
62.935 -0.00995938
62.975 0.0122629
63.015 0.00958672
63.055 0.00832564
63.095 0.0306265
63.135 -0.00557906
63.175 0.0196745
63.215 0.0198219
63.255 0.0142544
63.295 0.000636425
63.335 0.0461275
63.375 0.0148114
63.415 0.0585518
63.455 0.059715
63.495 0.088735
63.535 0.0670931
63.575 0.0904501
63.615 0.10076
63.655 0.0622793
63.695 0.0691974
63.735 0.128085
63.775 0.0844846
63.815 0.0953763
63.855 0.0745276
63.895 0.105887
63.935 0.0636901
63.975 0.0319959
64.015 0.0562786
64.055 0.0165832
64.095 0.0200017
64.135 0.0242834
64.175 0.0359741
64.215 0.0273846
64.255 0.018786
64.295 0.0314546
64.335 0.0103408
64.375 0.0263281
64.415 0.00487463
64.455 0.00569885
64.495 0.00411934
64.535 -0.00838248
64.575 0.014653
64.615 -0.00976643
64.655 -0.000576731
64.695 0.00513101
64.735 -0.00648859
64.775 0.0021562
64.815 0.00546299
64.855 0.0420897
64.895 0.0622075
64.935 0.0332643
64.975 0.0710856
65.015 0.0990694
65.055 0.110086
65.095 0.0805715
65.135 0.119707
65.175 0.0696547
65.215 0.0432089
65.255 0.022778
65.295 0.0453515
65.335 0.0241659
65.375 0.0179248
65.415 0.0426726
65.455 0.0357138
65.495 0.0480678
65.535 0.0285257
65.575 0.0264886
65.615 0.0265212
65.655 0.0237918
65.695 0.0251467
65.735 0.0286084
65.775 0.0220392
65.815 0.0215325
65.855 0.00355653
65.895 0.00931692
65.935 0.0397427
65.975 0.00265873
66.015 0.00884003
66.055 0.0299
66.095 0.0075601
66.135 0.0208253
66.175 0.00914897
66.215 0.0139278
66.255 -0.00531888
66.295 0.00533363
66.335 -0.00189491
66.375 0.0361791
66.415 -0.00923698
66.455 0.0148944
66.495 0.00462559
66.535 0.0202276
66.575 0.0395593
66.615 0.0254919
66.655 0.014605
66.695 0.0352452
66.735 -0.0236435
66.775 0.0516837
66.815 0.0373512
66.855 0.0335789
66.895 0.0309025
66.935 0.0218047
66.975 0.00912067
67.015 0.028409
67.055 0.00723869
67.095 0.0344275
67.135 0.0169121
67.175 -0.0224813
67.215 -0.00222948
67.255 0.000510935
67.295 0.00276047
67.335 0.000112865
67.375 0.0239897
67.415 0.0116831
67.455 0.0227829
67.495 0.0190795
67.535 0.00951688
67.575 0.0263606
67.615 -0.00223923
67.655 -0.00391495
67.695 0.0230235
67.735 -0.000163077
67.775 0.0233376
67.815 0.00470453
67.855 0.0466209
67.895 0.0287146
67.935 0.0340318
67.975 0.0121169
68.015 0.00723822
68.055 0.00768159
68.095 -0.0169808
68.135 0.0205762
68.175 0.00813256
68.215 -0.00658861
68.255 0.0150392
68.295 0.027506
68.335 -0.0155486
68.375 -0.0072695
68.415 0.0185199
68.455 -0.00806296
68.495 0.00406352
68.535 -0.0235647
68.575 0.00177323
68.615 0.0155754
68.655 0.0336112
68.695 0.0149664
68.735 0.0177087
68.775 0.0367037
68.815 0.040399
68.855 0.0565505
68.895 0.0486763
68.935 0.0541275
68.975 0.0698077
69.015 0.0427571
69.055 0.0207937
69.095 0.0719716
69.135 0.0679594
69.175 0.052203
69.215 0.0698934
69.255 0.0575578
69.295 0.0592265
69.335 0.0457734
69.375 0.0391368
69.415 0.0289177
69.455 -0.00485305
69.495 0.0478169
69.535 0.0462771
69.575 0.0326122
69.615 0.0226992
69.655 0.0219438
69.695 0.018014
69.735 0.0106443
69.775 -0.0113265
69.815 -0.0110755
69.855 0.0216198
69.895 0.0109829
69.935 0.0143965
69.975 0.0095944
70.015 -0.0235087
70.055 -0.015293
70.095 0.0106698
70.135 0.0081049
70.175 0.00557566
70.215 -0.00568706
70.255 -0.0234446
70.295 0.000502958
70.335 0.0238277
70.375 0.0123094
70.415 0.0122555
70.455 0.0277784
70.495 0.0489258
70.535 0.0553065
70.575 0.0379468
70.615 0.0960983
70.655 0.0581158
70.695 0.0551196
70.735 0.0674045
70.775 0.0501964
70.815 0.0520077
70.855 0.0458817
70.895 0.0564328
70.935 0.0442984
70.975 0.0527603
71.015 0.0394325
71.055 0.0344616
71.095 -0.00129324
71.135 0.0131091
71.175 0.032932
71.215 0.0180605
71.255 -0.00524858
71.295 0.00685878
71.335 0.000510602
71.375 0.000887944
71.415 0.0311373
71.455 0.012174
71.495 0.0117577
71.535 0.0143436
71.575 0.0341905
71.615 0.0412825
71.655 0.0469258
71.695 0.0525406
71.735 0.0850135
71.775 0.0947914
71.815 0.0865249
71.855 0.113178
71.895 0.124297
71.935 0.123926
71.975 0.140495
72.015 0.118015
72.055 0.104271
72.095 0.115726
72.135 0.131106
72.175 0.0985137
72.215 0.112259
72.255 0.0858184
72.295 0.0589486
72.335 0.0510295
72.375 0.0476614
72.415 0.0556133
72.455 0.0302216
72.495 0.0475006
72.535 0.0246886
72.575 0.025374
72.615 0.000501305
72.655 0.0330023
72.695 -0.0112552
72.735 -0.0113311
72.775 0.0334225
72.815 -0.0053929
72.855 -0.0113328
72.895 0.0213185
72.935 0.0263026
72.975 0.0344617
73.015 0.0428753
73.055 0.0053316
73.095 0.0166864
73.135 0.0191375
73.175 0.0318621
73.215 0.0175342
73.255 0.0379704
73.295 -0.0200906
73.335 0.019066
73.375 0.0281951
73.415 0.0197285
73.455 0.0112227
73.495 -0.00532725
73.535 -0.00173815
73.575 0.0160835
73.615 -0.00423948
73.655 -0.00520749
73.695 -0.0211009
73.71 -0.023433