File: data/xrd/xy/2019-05-13T18_52_03.413380+00_00_LBL.xy
'Id: "" Comment: "Integrate frame ProdiAPbI30_01_001.gfrmwith cursor Wedge Cursor #1" Operator: "UC Berkeley" Anode: "Co" Scantype: "TwoTheta" TimePerStep: "900"
14.275 -0.0211044
14.31 -0.0202782
14.345 0.0110197
14.38 0.0499065
14.415 0.0237472
14.45 -0.00517839
14.485 0.0431405
14.52 0.000542406
14.555 0.0245274
14.59 0.0189444
14.625 0.0469526
14.66 0.062075
14.695 0.00570636
14.73 0.0219124
14.765 0.0228846
14.8 -0.00309632
14.835 0.0668423
14.87 0.00888769
14.905 0.0201333
14.94 0.0115144
14.975 0.0419355
15.01 0.0546264
15.045 0.0137834
15.08 0.0414065
15.115 0.00219378
15.15 0.0262152
15.185 0.00960248
15.22 0.0294334
15.255 0.0327496
15.29 0.0158452
15.325 0.0356598
15.36 -0.00616294
15.395 0.0443076
15.43 0.0218986
15.465 0.0300767
15.5 0.0310885
15.535 0.0361005
15.57 0.00872596
15.605 0.0323289
15.64 -0.00121055
15.675 0.00762265
15.71 0.0381616
15.745 0.0237518
15.78 0.00215278
15.815 0.0159384
15.85 -0.000195123
15.885 0.00983493
15.92 0.0180768
15.955 0.0242262
15.99 0.0380704
16.025 0.0385449
16.06 0.0217271
16.095 0.0203316
16.13 0.0100211
16.165 -0.016004
16.2 0.0163312
16.235 0.0172162
16.27 0.0127118
16.305 0.0209976
16.34 0.0309736
16.375 0.0137883
16.41 0.0139421
16.445 0.0302821
16.48 0.0146786
16.515 0.0399803
16.55 0.0284475
16.585 0.0317029
16.62 -0.00103663
16.655 0.0160501
16.69 0.0346937
16.725 0.0247239
16.76 0.0175158
16.795 0.00856283
16.83 0.0191796
16.865 0.00299335
16.9 0.0162835
16.935 0.019773
16.97 0.0205781
17.005 0.0108326
17.04 0.0273058
17.075 0.0131333
17.11 0.0293367
17.145 0.00847581
17.18 0.0179332
17.215 0.00360297
17.25 0.0211865
17.285 0.0251321
17.32 0.003246
17.355 0.0221106
17.39 0.00628931
17.425 0.00329064
17.46 0.0208354
17.495 0.0308949
17.53 0.0232658
17.565 0.0252461
17.6 0.0260043
17.635 0.0328502
17.67 0.0134563
17.705 0.0331049
17.74 0.00891204
17.775 0.0528925
17.81 -0.00175497
17.845 0.00722127
17.88 0.0271867
17.915 0.0249222
17.95 0.0302825
17.985 0.0236028
18.02 0.024719
18.055 0.0351369
18.09 0.022773
18.125 0.00877431
18.16 0.0182004
18.195 -0.00355119
18.23 0.018517
18.265 0.044218
18.3 0.026595
18.335 0.0194369
18.37 0.0266072
18.405 0.0575381
18.44 0.0606434
18.475 0.0693814
18.51 0.0668958
18.545 0.070163
18.58 0.0616501
18.615 0.0420146
18.65 0.00168324
18.685 0.0393938
18.72 0.0230388
18.755 0.027482
18.79 0.0115055
18.825 0.00562293
18.86 0.0252471
18.895 0.0162798
18.93 0.0121294
18.965 0.0236693
19 0.0284166
19.035 0.0248704
19.07 0.00839199
19.105 0.0212266
19.14 0.029458
19.175 0.030429
19.21 0.0348647
19.245 0.00282927
19.28 0.0288561
19.315 0.0210944
19.35 0.0371421
19.385 0.0229246
19.42 0.0271338
19.455 0.0240702
19.49 0.0170383
19.525 0.0285093
19.56 0.0377928
19.595 0.0256532
19.63 0.0180962
19.665 0.00660446
19.7 0.0251101
19.735 0.0268351
19.77 0.0234121
19.805 0.0246558
19.84 0.00821344
19.875 0.0121974
19.91 0.0209085
19.945 0.0287162
19.98 0.00808516
20.015 0.0380556
20.05 0.0264471
20.085 0.0145604
20.12 0.0328687
20.155 0.0179499
20.19 -0.00510569
20.225 0.0221602
20.26 0.0151475
20.295 0.0295367
20.33 0.025296
20.365 0.0211706
20.4 0.0347782
20.435 0.034715
20.47 0.0418144
20.505 -0.000918064
20.54 0.0206555
20.575 0.0146959
20.61 0.0382761
20.645 0.0301121
20.68 0.00493495
20.715 0.0217772
20.75 0.0111445
20.785 0.0174621
20.82 0.0176923
20.855 0.0197949
20.89 0.0168941
20.925 0.0235927
20.96 -0.00187045
20.995 -0.00203542
21.03 0.00395629
21.065 0.0387852
21.1 0.0294976
21.135 0.0142517
21.17 0.00194078
21.205 0.0108746
21.24 -0.0139251
21.275 -0.00153704
21.31 0.0163641
21.345 0.00319874
21.38 -0.00734193
21.415 0.00189446
21.45 0.0253867
21.485 0.0123557
21.52 -0.00382105
21.555 0.0248852
21.59 -0.00677458
21.625 0.0291903
21.66 0.0344206
21.695 -0.00116191
21.73 0.0332047
21.765 0.0333641
21.8 0.00362199
21.835 0.0341634
21.87 0.00758311
21.905 0.0302403
21.94 0.00554063
21.975 0.0282842
22.01 0.00452652
22.045 -0.00597463
22.08 0.0088359
22.115 0.0150078
22.15 0.0292856
22.185 0.0212225
22.22 0.00890258
22.255 0.0231209
22.29 0.0203551
22.325 -0.00142955
22.36 0.00722012
22.395 0.0103482
22.43 0.00478942
22.465 0.0147357
22.5 0.0327271
22.535 0.00528731
22.57 0.00860037
22.605 -0.00316932
22.64 0.01722
22.675 0.00118357
22.71 0.0314797
22.745 0.0303876
22.78 0.000229955
22.815 0.0364565
22.85 0.0181904
22.885 0.0154975
22.92 -0.00137459
22.955 -0.00516045
22.99 0.0170109
23.025 -0.00610831
23.06 0.0118882
23.095 0.0212339
23.13 0.00571641
23.165 -0.00566292
23.2 0.000333472
23.235 0.0325249
23.27 0.0177067
23.305 0.0837514
23.34 0.069775
23.375 0.129263
23.41 0.148039
23.445 0.183776
23.48 0.214354
23.515 0.265694
23.55 0.180912
23.585 0.163573
23.62 0.0976127
23.655 0.0537596
23.69 0.0552781
23.725 0.0115468
23.76 0.00890865
23.795 0.00725578
23.83 0.0190543
23.865 -0.00274621
23.9 -0.00476164
23.935 0.0163768
23.97 -0.00217886
24.005 0.0103949
24.04 0.00264358
24.075 0.0128878
24.11 -0.000559464
24.145 0.0301628
24.18 0.0144943
24.215 0.0129637
24.25 0.0177631
24.285 0.0220114
24.32 0.00924797
24.355 0.00537608
24.39 0.00214464
24.425 0.0266869
24.46 0.00496457
24.495 -0.00604569
24.53 -0.00537884
24.565 5.02459e-05
24.6 0.0204479
24.635 -0.00485256
24.67 0.00553633
24.705 0.018491
24.74 0.0148748
24.775 0.00804355
24.81 0.00285183
24.845 -0.0109758
24.88 -0.00324146
24.915 0.0136163
24.95 -0.000623034
24.985 0.0160754
25.02 0.00747285
25.055 0.0139388
25.09 0.00579958
25.125 0.0145874
25.16 0.052901
25.195 0.0365126
25.23 0.0650344
25.265 0.079881
25.3 0.052249
25.335 0.0704758
25.37 0.0426095
25.405 0.0140454
25.44 0.030693
25.475 0.0234464
25.51 0.0105848
25.545 0.0154835
25.58 0.0232454
25.615 0.00678166
25.65 0.00991248
25.685 -0.00449383
25.72 -0.00831076
25.755 -0.00614175
25.79 -0.00669001
25.825 0.029165
25.86 0.0117466
25.895 -0.00388931
25.93 0.0140293
25.965 0.00994284
26 0.0162645
26.035 0.0140955
26.07 -0.00385076
26.105 0.00622125
26.14 0.0110843
26.175 -0.00181858
26.21 0.0303609
26.245 -0.00651325
26.28 0.000473209
26.315 -0.00491047
26.35 0.009367
26.385 0.0235611
26.42 0.0184168
26.455 0.0369695
26.49 0.00174995
26.525 0.0197168
26.56 0.0185234
26.595 -0.00649772
26.63 0.00340951
26.665 0.00809876
26.7 0.0157931
26.735 0.0159063
26.77 0.0169704
26.805 0.00709064
26.84 0.0023963
26.875 0.00940767
26.91 -0.014467
26.945 -0.00892528
26.98 0.0119233
27.015 0.00582544
27.05 0.0178764
27.085 0.00921253
27.12 0.0150805
27.155 -0.00887535
27.19 0.00854665
27.225 0.0116734
27.26 0.0174773
27.295 0.0304576
27.33 -0.00812965
27.365 -0.0117373
27.4 0.0160664
27.435 0.0245713
27.47 -0.0122022
27.505 0.015611
27.54 0.00467533
27.575 0.0245325
27.61 0.022299
27.645 0.011562
27.68 0.0164481
27.715 0.0189453
27.75 -0.000800932
27.785 0.015877
27.82 -0.00536566
27.855 -0.00530863
27.89 0.0116963
27.925 0.0051761
27.96 0.0286334
27.995 0.0046267
28.03 -0.00181994
28.065 0.00331317
28.1 0.023912
28.135 0.0143656
28.17 0.0201524
28.205 0.0200581
28.24 0.010548
28.275 -0.00663239
28.31 -0.0137467
28.345 0.0107733
28.38 0.0066004
28.415 0.0164779
28.45 0.00696612
28.485 0.0271487
28.52 0.0267426
28.555 0.0286259
28.59 0.0763505
28.625 0.0795891
28.66 0.162386
28.695 0.201258
28.73 0.245079
28.765 0.226117
28.8 0.201274
28.835 0.151501
28.87 0.0809677
28.905 0.0329505
28.94 0.0474159
28.975 0.0346766
29.01 0.0261941
29.045 0.0220783
29.08 0.0199879
29.115 0.0400897
29.15 0.0388144
29.185 0.0126161
29.22 0.0270231
29.255 0.0324625
29.29 0.0116428
29.325 0.00491138
29.36 0.0267607
29.395 0.0221057
29.43 0.0334492
29.465 0.0248239
29.5 0.0133661
29.535 0.0228451
29.57 0.0403218
29.605 0.036122
29.64 0.0515682
29.675 0.0627966
29.71 0.0851514
29.745 0.101143
29.78 0.15153
29.815 0.245324
29.85 0.398756
29.885 0.551714
29.92 0.858246
29.955 1.24944
29.99 1.62912
30.025 1.87616
30.06 1.85211
30.095 1.58163
30.13 1.14221
30.165 0.736381
30.2 0.453249
30.235 0.266122
30.27 0.150856
30.305 0.0975604
30.34 0.0634087
30.375 0.0582027
30.41 0.0415623
30.445 0.0239532
30.48 0.0291269
30.515 0.0173185
30.55 0.0388635
30.585 0.0289547
30.62 0.0270945
30.655 0.0154661
30.69 0.0256816
30.725 0.0097274
30.76 0.0320342
30.795 0.0139663
30.83 0.0273155
30.865 0.0184201
30.9 0.00424785
30.935 0.00937433
30.97 0.0196107
31.005 -0.0095421
31.04 0.00986464
31.075 0.0311908
31.11 0.00676954
31.145 0.00844513
31.18 0.0146814
31.215 0.0141291
31.25 0.0113419
31.285 0.00486542
31.32 0.012525
31.355 -0.00944942
31.39 0.023565
31.425 0.00714834
31.46 -0.000558274
31.495 -0.00658068
31.53 0.00676925
31.565 0.0164672
31.6 0.0044512
31.635 -0.00370353
31.67 -0.000651195
31.705 0.0104093
31.74 -0.000934635
31.775 0.0136578
31.81 -0.00195094
31.845 -0.00694148
31.88 -0.00547076
31.915 -0.00576626
31.95 0.0115153
31.985 0.00541705
32.02 -0.00632378
32.055 0.00724167
32.09 0.0149322
32.125 0.0063077
32.16 -0.00248255
32.195 0.00311122
32.23 -0.0137804
32.265 0.00975201
32.3 -0.00815822
32.335 0.000985992
32.37 0.00125964
32.405 -0.00835864
32.44 -0.0137739
32.475 0.00389307
32.51 0.00037342
32.545 0.00436638
32.58 -0.00631074
32.615 0.00272481
32.65 0.00365147
32.685 0.00731289
32.72 0.000709697
32.755 0.00494324
32.79 -0.0159224
32.825 -0.0134339
32.86 4.27973e-05
32.895 -0.00683076
32.93 0.00913192
32.965 -0.00534234
33 -0.00586529
33.035 0.0198602
33.07 -0.0104869
33.105 0.00843445
33.14 0.00766311
33.175 0.00237795
33.21 -0.0105372
33.245 0.0083692
33.28 0.00502268
33.315 -0.00603205
33.35 -0.000418672
33.385 0.00435004
33.42 -0.00295832
33.455 0.000241642
33.49 9.48719e-05
33.525 -0.00835627
33.56 0.000568644
33.595 0.01333
33.63 -0.0020609
33.665 0.0131761
33.7 -0.000399658
33.735 -0.0100462
33.77 -0.003524
33.805 0.00483827
33.84 -0.00266171
33.875 0.00169791
33.91 0.0167656
33.945 0.000558018
33.98 0.0140017
34.015 -0.00253249
34.05 -0.00105846
34.085 0.00956686
34.12 -0.00618033
34.155 0.00741449
34.19 0.0114313
34.225 0.0123676
34.26 0.0125813
34.295 0.0164398
34.33 0.0405222
34.365 0.041583
34.4 0.0490738
34.435 0.0612443
34.47 0.0832958
34.505 0.130621
34.54 0.191666
34.575 0.293099
34.61 0.430562
34.645 0.632205
34.68 0.829193
34.715 1.0354
34.75 1.16909
34.785 1.12693
34.82 0.916539
34.855 0.695607
34.89 0.470787
34.925 0.30197
34.96 0.183095
34.995 0.117865
35.03 0.0844228
35.065 0.039924
35.1 0.0316358
35.135 0.0294572
35.17 0.0343991
35.205 0.0124099
35.24 0.0288081
35.275 0.00936344
35.31 0.00923277
35.345 0.0127416
35.38 0.0104034
35.415 0.0156923
35.45 0.0116719
35.485 0.0186664
35.52 0.0113792
35.555 0.0176296
35.59 0.00701691
35.625 0.0238744
35.66 0.0239267
35.695 0.0348395
35.73 0.0337961
35.765 0.0380821
35.8 0.0427019
35.835 0.039973
35.87 0.0705258
35.905 0.0802842
35.94 0.116344
35.975 0.17974
36.01 0.279199
36.045 0.451996
36.08 0.710013
36.115 1.01679
36.15 1.22945
36.185 1.304
36.22 1.1969
36.255 0.99262
36.29 0.761616
36.325 0.541896
36.36 0.363967
36.395 0.224519
36.43 0.154485
36.465 0.0960322
36.5 0.0699015
36.535 0.0394043
36.57 0.0418684
36.605 0.0434332
36.64 0.029998
36.675 0.034594
36.71 0.025959
36.745 0.0286564
36.78 0.0279476
36.815 0.0129739
36.85 0.0131057
36.885 0.0271096
36.92 0.0361512
36.955 0.0349332
36.99 0.0347062
37.025 0.046069
37.06 0.0583806
37.095 0.0708005
37.13 0.109248
37.165 0.1352
37.2 0.226357
37.235 0.339422
37.27 0.525054
37.305 0.771146
37.34 1.0497
37.375 1.28521
37.41 1.34007
37.445 1.25084
37.48 1.07307
37.515 0.835564
37.55 0.630788
37.585 0.455077
37.62 0.297251
37.655 0.193195
37.69 0.117659
37.725 0.0826538
37.76 0.0593607
37.795 0.0562519
37.83 0.0351502
37.865 0.0238554
37.9 0.0301686
37.935 0.0247821
37.97 0.0305366
38.005 0.0113207
38.04 0.0173022
38.075 0.0125859
38.11 0.0236774
38.145 0.0137343
38.18 0.0278981
38.215 0.0376036
38.25 0.0566162
38.285 0.0637497
38.32 0.099146
38.355 0.158153
38.39 0.192891
38.425 0.24111
38.46 0.240285
38.495 0.229266
38.53 0.201006
38.565 0.154802
38.6 0.10791
38.635 0.0834049
38.67 0.0369973
38.705 0.0269989
38.74 0.011562
38.775 0.0152251
38.81 -0.00282338
38.845 -0.00154472
38.88 0.00183119
38.915 -0.00519884
38.95 0.00198163
38.985 0.00917224
39.02 -0.00837274
39.055 0.0093385
39.09 0.00896643
39.125 0.00153294
39.16 -0.00466017
39.195 -0.0128822
39.23 -0.00981005
39.265 -0.00869386
39.3 -0.00213465
39.335 -0.00565133
39.37 -0.00464319
39.405 -0.00596634
39.44 -0.0102044
39.475 -0.0127196
39.51 0.00338223
39.545 -0.00486046
39.58 -0.00417136
39.615 0.00010745
39.65 -0.00445889
39.685 -0.00999042
39.72 -0.00693837
39.755 -0.00583251
39.79 -0.000155247
39.825 -0.00940527
39.86 0.000510423
39.895 -0.00884682
39.93 -0.00204134
39.965 -0.00114354
40 -0.0108868
40.035 -0.00291772
40.07 -0.0149931
40.105 -0.00438803
40.14 -0.00973065
40.175 0.00620562
40.21 -0.0023366
40.245 -0.00210806
40.28 -0.00895996
40.315 -0.00683579
40.35 -0.00612664
40.385 -0.00390213
40.42 -0.00631862
40.455 0.0139805
40.49 0.0135304
40.525 0.00564154
40.56 0.0258028
40.595 0.0440773
40.63 0.0525232
40.665 0.0747624
40.7 0.0869749
40.735 0.0820472
40.77 0.0763128
40.805 0.0641916
40.84 0.0836864
40.875 0.0486777
40.91 0.0362113
40.945 0.0275747
40.98 0.0331006
41.015 0.0298313
41.05 0.0510554
41.085 0.0639662
41.12 0.103867
41.155 0.118749
41.19 0.157705
41.225 0.161535
41.26 0.163893
41.295 0.158176
41.33 0.134744
41.365 0.0910311
41.4 0.0733202
41.435 0.0449925
41.47 0.0448665
41.505 0.0170764
41.54 -1.77749e-05
41.575 0.00537127
41.61 -0.00153142
41.645 -0.00264224
41.68 0.0042204
41.715 -0.00742261
41.75 0.0142657
41.785 0.0135879
41.82 -0.000811341
41.855 0.00210583
41.89 0.00446083
41.925 0.00725204
41.96 -0.00860354
41.995 -0.00698613
42.03 -0.00425097
42.065 0.00765275
42.1 -0.000719861
42.135 0.00186681
42.17 -0.000882428
42.205 0.0175199
42.24 0.00827347
42.275 0.00328065
42.31 0.00392232
42.345 0.0077482
42.38 -0.00599278
42.415 0.000509638
42.45 -0.000540263
42.485 0.0166999
42.52 -0.000444743
42.555 -0.0110993
42.59 -0.0062378
42.625 -0.00709939
42.66 -0.00629197
42.695 0.0194578
42.73 -0.00790277
42.765 -0.00293351
42.8 -0.00595028
42.835 0.0121079
42.87 0.00735134
42.905 0.00162271
42.94 -0.00380089
42.975 0.00127414
43.01 0.00611118
43.045 -0.00436892
43.08 -0.00588205
43.115 -0.0118806
43.15 -0.0103101
43.185 0.00744101
43.22 0.00409527
43.255 -0.00404911
43.29 -0.00328183
43.325 0.0100875
43.36 0.00665203
43.395 -0.00202735
43.43 -0.0100544
43.465 0.00364142
43.5 -0.000273935
43.535 -0.00708818
43.57 -0.00265591
43.605 0.000299596
43.64 0.0133671
43.675 -0.00356991
43.71 7.5725e-05
43.745 -0.0091303
43.78 -0.00265393
43.815 0.000197894
43.85 0.0102002
43.885 6.51329e-05
43.92 -0.00197107
43.955 0.00959028
43.99 0.0158202
44.025 0.0160605
44.06 -0.0111584
44.095 0.00159247
44.13 0.0116069
44.165 0.00262889
44.2 -0.00619054
44.235 0.0227103
44.27 0.0147729
44.305 0.0237283
44.34 0.0321673
44.375 0.0574847
44.41 0.0558323
44.445 0.0888878
44.48 0.0962689
44.515 0.151933
44.55 0.182704
44.585 0.248891
44.62 0.271902
44.655 0.30418
44.69 0.2986
44.725 0.261421
44.76 0.232137
44.795 0.188825
44.83 0.130676
44.865 0.0930377
44.9 0.0665897
44.935 0.0313152
44.97 0.022551
45.005 0.0157769
45.04 0.0064194
45.075 0.0222208
45.11 0.0133102
45.145 0.00819281
45.18 0.0105562
45.215 -0.00599666
45.25 0.0148672
45.285 0.00273185
45.32 -0.00615024
45.355 -0.00491216
45.39 -0.00833969
45.425 -0.0135021
45.46 0.00296522
45.495 -0.000122936
45.53 0.00473314
45.565 0.00215341
45.6 0.00448126
45.635 -0.00114944
45.67 -0.001857
45.705 0.00493691
45.74 0.0112723
45.775 0.00135752
45.81 0.0135152
45.845 0.00222666
45.88 -0.0108746
45.915 0.00359954
45.95 -0.00219083
45.985 -0.00692079
46.02 0.0115119
46.055 0.0120386
46.09 0.00210512
46.125 -0.0147631
46.16 0.0046464
46.195 -0.00671585
46.23 -0.00749628
46.265 4.83133e-05
46.3 -0.0105655
46.335 0.00504683
46.37 0.00263936
46.405 0.00836223
46.44 0.00500855
46.475 0.000838905
46.51 0.00473
46.545 -0.000622038
46.58 0.00566227
46.615 0.00458702
46.65 0.000765802
46.685 -0.0033131
46.72 0.00970046
46.755 0.0089906
46.79 0.00600707
46.825 0.00984445
46.86 -0.00261372
46.895 0.0227012
46.93 0.00825935
46.965 0.0149597
47 0.0180787
47.035 0.0205237
47.07 0.0285346
47.105 0.0287294
47.14 0.0233148
47.175 0.0402164
47.21 0.0570262
47.245 0.0678199
47.28 0.0590269
47.315 0.0842725
47.35 0.107087
47.385 0.152191
47.42 0.207924
47.455 0.281497
47.49 0.350978
47.525 0.426725
47.56 0.471796
47.595 0.483471
47.63 0.481937
47.665 0.440264
47.7 0.406123
47.735 0.417608
47.77 0.501404
47.805 0.614681
47.84 0.843831
47.875 1.10346
47.91 1.45673
47.945 1.79541
47.98 1.99991
48.015 2.07647
48.05 1.95253
48.085 1.58294
48.12 1.21406
48.155 0.868262
48.19 0.592837
48.225 0.415296
48.26 0.288075
48.295 0.202097
48.33 0.145165
48.365 0.103681
48.4 0.0958335
48.435 0.0735243
48.47 0.0793727
48.505 0.0644986
48.54 0.0731582
48.575 0.0736662
48.61 0.0691326
48.645 0.0800988
48.68 0.0764015
48.715 0.0913851
48.75 0.119755
48.785 0.158434
48.82 0.186646
48.855 0.235393
48.89 0.274143
48.925 0.321184
48.96 0.323103
48.995 0.312746
49.03 0.302981
49.065 0.278558
49.1 0.241819
49.135 0.196944
49.17 0.16274
49.205 0.124635
49.24 0.0933639
49.275 0.0732776
49.31 0.0511447
49.345 0.0386699
49.38 0.0387116
49.415 0.0374397
49.45 0.0382951
49.485 0.0353776
49.52 0.0365667
49.555 0.0420238
49.59 0.0422029
49.625 0.0591502
49.66 0.0631177
49.695 0.0640463
49.73 0.0785346
49.765 0.0978794
49.8 0.109487
49.835 0.13797
49.87 0.184007
49.905 0.251557
49.94 0.324176
49.975 0.413375
50.01 0.502771
50.045 0.597119
50.08 0.646647
50.115 0.669497
50.15 0.63315
50.185 0.547642
50.22 0.445403
50.255 0.3564
50.29 0.26595
50.325 0.177708
50.36 0.125157
50.395 0.0811814
50.43 0.0658698
50.465 0.0524429
50.5 0.0449406
50.535 0.0373319
50.57 0.0308507
50.605 0.0211838
50.64 0.0155069
50.675 0.011326
50.71 0.0138047
50.745 0.0124947
50.78 0.00590314
50.815 0.0122744
50.85 0.00307363
50.885 0.000905456
50.92 0.00589715
50.955 -0.000621387
50.99 0.00243941
51.025 0.00305974
51.06 0.00356512
51.095 0.00107696
51.13 -0.00219219
51.165 0.00175167
51.2 0.00294956
51.235 0.0127911
51.27 0.00116679
51.305 0.00832768
51.34 -0.00129527
51.375 0.00577816
51.41 0.0100352
51.445 0.00336127
51.48 0.0174737
51.515 0.0157709
51.55 0.0304398
51.585 0.0476057
51.62 0.0597532
51.655 0.0798011
51.69 0.0969806
51.725 0.125343
51.76 0.163285
51.795 0.190164
51.83 0.199221
51.865 0.216909
51.9 0.213981
51.935 0.18946
51.97 0.168223
52.005 0.13546
52.04 0.109097
52.075 0.0749926
52.11 0.0493228
52.145 0.0310103
52.18 0.0233998
52.215 0.01293
52.25 0.0128674
52.285 0.0061948
52.32 -0.000258098
52.355 -0.000452352
52.39 -0.00134036
52.425 -0.0014742
52.46 -0.00321633
52.495 -0.00236622
52.53 -0.00118293
52.565 -0.00969454
52.6 -0.00266683
52.635 -0.00281327
52.67 9.533e-05
52.705 0.00471643
52.74 -0.00596378
52.775 -0.00897985
52.81 -0.0104626
52.845 -0.00786711
52.88 -0.00670001
52.915 -0.00398281
52.95 -0.00282941
52.985 -0.0122287
53.02 -0.0100384
53.055 -0.00998933
53.09 0.00140558
53.125 -0.00335775
53.16 -0.00543739
53.195 -0.0036887
53.23 -0.000515039
53.265 -0.00212916
53.3 0.0056759
53.335 0.00171603
53.37 0.0160369
53.405 0.0162755
53.44 0.00274669
53.475 0.0257603
53.51 0.0305424
53.545 0.0446388
53.58 0.0626204
53.615 0.0967432
53.65 0.107881
53.685 0.139071
53.72 0.179858
53.755 0.211485
53.79 0.223621
53.825 0.213477
53.86 0.208435
53.895 0.191634
53.93 0.160224
53.965 0.140133
54 0.0996236
54.035 0.0734383
54.07 0.0590158
54.105 0.0397988
54.14 0.0265155
54.175 0.0128934
54.21 0.00335764
54.245 0.0102828
54.28 -0.00457561
54.315 0.00529754
54.35 0.0031957
54.385 0.00430336
54.42 -0.002882
54.455 -0.00563596
54.49 0.00393944
54.525 -0.0106612
54.56 -0.00678521
54.595 -0.0010089
54.63 -0.00430569
54.665 -0.00310609
54.7 -0.000484464
54.735 -0.0132508
54.77 0.00100641
54.805 0.00725269
54.84 0.00838117
54.875 0.00923553
54.91 0.0108348
54.945 0.0123701
54.98 0.0310385
55.015 0.034153
55.05 0.0303605
55.085 0.0354834
55.12 0.0237878
55.155 0.0280842
55.19 0.00649857
55.225 0.00397938
55.26 0.00342246
55.295 -0.00303866
55.33 0.00100901
55.365 0.00433043
55.4 -0.00320972
55.435 0.00562815
55.47 -0.00224462
55.505 -0.00364759
55.54 -0.00931046
55.575 0.00430123
55.61 -0.00419817
55.645 -0.000801462
55.68 -0.00102825
55.715 -0.00570063
55.75 -0.00253397
55.785 -0.0113049
55.82 0.002827
55.855 -0.000915836
55.89 0.00200065
55.925 -0.00348185
55.96 0.00456492
55.995 -0.00333182
56.03 -0.00222604
56.065 0.00197481
56.1 -0.0014904
56.135 0.00425521
56.17 0.00467979
56.205 0.000557836
56.24 0.000207524
56.275 0.00435327
56.31 0.00958606
56.345 0.00843004
56.38 0.00250758
56.415 0.00526363
56.45 0.0048988
56.485 -0.00365887
56.52 0.00682374
56.555 0.00725612
56.59 0.0087427
56.625 0.0296216
56.66 0.0236148
56.695 0.0337965
56.73 0.050155
56.765 0.0600449
56.8 0.0572057
56.835 0.0646865
56.87 0.0791412
56.905 0.10005
56.94 0.100417
56.975 0.0980512
57.01 0.0816386
57.045 0.0869638
57.08 0.0811372
57.115 0.0755617
57.15 0.0554946
57.185 0.0504953
57.22 0.0491294
57.255 0.0547376
57.29 0.0472798
57.325 0.062956
57.36 0.0783265
57.395 0.0909757
57.43 0.121517
57.465 0.122878
57.5 0.171761
57.535 0.1985
57.57 0.229228
57.605 0.264209
57.64 0.286579
57.675 0.297054
57.71 0.314582
57.745 0.283719
57.78 0.251702
57.815 0.215849
57.85 0.179241
57.885 0.159192
57.92 0.112893
57.955 0.0985718
57.99 0.0691581
58.025 0.0527521
58.06 0.032629
58.095 0.0347093
58.13 0.0329094
58.165 0.0295016
58.2 0.00794845
58.235 0.013672
58.27 0.0157722
58.305 0.00528247
58.34 0.00698464
58.375 0.00630296
58.41 0.0154359
58.445 0.00312943
58.48 0.00353847
58.515 0.011585
58.55 0.00350614
58.585 -0.00491973
58.62 0.00326658
58.655 0.0144444
58.69 0.00930959
58.725 0.0170982
58.76 -0.0118453
58.795 0.00462024
58.83 0.00299263
58.865 0.0158706
58.9 0.000606885
58.935 0.00162252
58.97 0.00501497
59.005 0.00433976
59.04 0.00540177
59.075 0.0071302
59.11 -0.00059658
59.145 0.00959178
59.18 0.00393716
59.215 0.017547
59.25 0.000369396
59.285 0.0156497
59.32 0.00474553
59.355 -0.00600085
59.39 0.0106317
59.425 0.0113259
59.46 0.0130197
59.495 0.00662483
59.53 0.00472223
59.565 -0.00251829
59.6 -0.00257655
59.635 0.0037074
59.67 -0.00122404
59.705 0.00665445
59.74 0.000708303
59.775 0.00874529
59.81 -0.00243987
59.845 -0.00915209
59.88 0.0141702
59.915 0.0103325
59.95 0.000901543
59.985 0.00652603
60.02 -0.00214718
60.055 0.00716252
60.09 0.00702807
60.125 -0.00516623
60.16 -0.00535043
60.195 0.00933878
60.23 0.00279334
60.265 0.000274461
60.3 0.00129663
60.335 -0.00738931
60.37 0.000831695
60.405 0.0169096
60.44 -0.000508359
60.475 0.00969651
60.51 0.00679199
60.545 0.00855175
60.58 0.0122623
60.615 -0.00891231
60.65 0.0129742
60.685 -0.00611858
60.72 0.015652
60.755 0.0051942
60.79 -0.00284595
60.825 0.00732773
60.86 -0.00271964
60.895 0.00892966
60.93 0.0163363
60.965 0.0200831
61 0.0162527
61.035 0.015501
61.07 0.0243533
61.105 0.0181811
61.14 0.0269202
61.175 0.0336701
61.21 0.0393229
61.245 0.0471833
61.28 0.0621562
61.315 0.08997
61.35 0.142269
61.385 0.223142
61.42 0.273643
61.455 0.354892
61.49 0.347468
61.525 0.35187
61.56 0.340942
61.595 0.29616
61.63 0.259559
61.665 0.192932
61.7 0.161804
61.735 0.12859
61.77 0.116513
61.805 0.098056
61.84 0.0755176
61.875 0.080109
61.91 0.0562659
61.945 0.0509765
61.98 0.0644303
62.015 0.0491658
62.05 0.0751681
62.085 0.0735433
62.12 0.0735135
62.155 0.0803077
62.19 0.0885759
62.225 0.111837
62.26 0.123698
62.295 0.132012
62.33 0.1499
62.365 0.17367
62.4 0.181915
62.435 0.193488
62.47 0.170685
62.505 0.180048
62.54 0.16269
62.575 0.130453
62.61 0.132183
62.645 0.103984
62.68 0.0931307
62.715 0.0814109
62.75 0.058844
62.785 0.0474554
62.82 0.0346745
62.855 0.0334398
62.89 0.0273066
62.925 0.0246568
62.96 0.00841075
62.995 0.0193436
63.03 0.0131305
63.065 0.0188069
63.1 0.0254694
63.135 0.0111311
63.17 0.0178895
63.205 0.0120359
63.24 0.00910919
63.275 0.0193422
63.31 0.0163283
63.345 -0.00269449
63.38 -0.00141528
63.415 0.0181137
63.45 0.0078699
63.485 0.00429911
63.52 -0.00312568
63.555 0.0102742
63.59 0.00590031
63.625 0.00502747
63.66 0.00442582
63.695 0.00951661
63.73 0.00389991
63.765 -0.0068679
63.8 0.0129891
63.835 -0.00240971
63.87 -0.00545736
63.905 0.00283444
63.94 -0.00382802
63.975 -0.000843182
64.01 0.0018918
64.045 0.00420292
64.08 0.00221896
64.115 -8.51163e-05
64.15 -0.0054558
64.185 0.000794853
64.22 0.0040598
64.255 0.00394773
64.29 0.017491
64.325 0.0164127
64.36 0.00540501
64.395 0.0163109
64.43 0.0208358
64.465 0.0172926
64.5 0.0446437
64.535 0.0447767
64.57 0.0473964
64.605 0.0736956
64.64 0.0798415
64.675 0.0912935
64.71 0.10359
64.745 0.110869
64.78 0.134893
64.815 0.151999
64.85 0.158287
64.885 0.169918
64.92 0.177296
64.955 0.174566
64.99 0.169948
65.025 0.151266
65.06 0.137433
65.095 0.126746
65.13 0.121103
65.165 0.0827722
65.2 0.0714142
65.235 0.0618645
65.27 0.0459371
65.305 0.0282024
65.34 0.0367262
65.375 0.0220713
65.41 0.0035399
65.445 0.0149609
65.48 0.00965075
65.515 0.0167044
65.55 0.00725496
65.585 0.00490879
65.62 0.000996384
65.655 0.00896395
65.69 0.00865259
65.725 0.0100262
65.76 -0.00624429
65.795 -0.00102567
65.83 -0.00423337
65.865 -0.000602652
65.9 0.0044353
65.935 0.00640886
65.97 -0.0080995
66.005 0.000864913
66.04 0.00110218
66.075 -0.00195725
66.11 -0.0122318
66.145 -0.00975498
66.18 -0.0019323
66.215 -0.00849913
66.25 -0.0049042
66.285 0.00148834
66.32 -0.00102378
66.355 0.00358167
66.39 -0.0066978
66.425 -0.00172321
66.46 0.0113557
66.495 -0.00133823
66.525 -0.012252