File: data/xrd/xy/2019-08-08T16_56_58.410591+00_00_LBL_E3.xy
'Id: "" Comment: "Integrate frame 4fluorobenzyl_01_001.gfrmwith cursor Wedge Cursor #1" Operator: "UC Berkeley" Anode: "Co" Scantype: "TwoTheta" TimePerStep: "500"
13.71 -0.0271592
13.75 0.099805
13.79 0.0666952
13.83 -0.0126488
13.87 0.00510845
13.91 0.0145551
13.95 0.0431998
13.99 0.0391754
14.03 0.0607923
14.07 0.0837557
14.11 0.032836
14.15 0.0835213
14.19 0.0886132
14.23 0.0793535
14.27 0.0414545
14.31 0.0126171
14.35 -0.00484117
14.39 0.0853581
14.43 0.0469394
14.47 0.0197025
14.51 0.0241136
14.55 0.0762705
14.59 0.0391668
14.63 0.0188792
14.67 -0.00406204
14.71 0.0534627
14.75 0.0223073
14.79 0.0755316
14.83 0.0125664
14.87 0.0882642
14.91 0.0953751
14.95 0.0248793
14.99 0.020475
15.03 0.112331
15.07 0.0390973
15.11 0.0663206
15.15 0.0394646
15.19 0.071057
15.23 0.0432288
15.27 0.079117
15.31 0.0639305
15.35 0.0267163
15.39 0.0026388
15.43 0.0157901
15.47 0.102907
15.51 0.0387276
15.55 0.030827
15.59 0.0606842
15.63 0.00141945
15.67 -0.0080278
15.71 0.052222
15.75 0.055822
15.79 0.0374277
15.83 0.0358489
15.87 0.0894524
15.91 0.0220901
15.95 0.032284
15.99 0.0523996
16.03 0.0427301
16.07 0.0187498
16.11 0.0459686
16.15 0.0631423
16.19 0.0195144
16.23 0.0992729
16.27 0.0489826
16.31 0.0390372
16.35 0.0501664
16.39 0.0844596
16.43 0.0159646
16.47 0.0236214
16.51 0.000287026
16.55 0.0214737
16.59 0.0314604
16.63 0.0361987
16.67 -0.00330079
16.71 0.0320173
16.75 0.0483595
16.79 -0.00949585
16.83 0.0545774
16.87 0.0366916
16.91 0.0527033
16.95 0.0528839
16.99 0.0746182
17.03 0.0256184
17.07 -0.00336445
17.11 0.0354754
17.15 0.0484877
17.19 0.0564493
17.23 0.0880965
17.27 0.0713176
17.31 0.0536842
17.35 0.0725643
17.39 0.0576089
17.43 0.0300439
17.47 0.069156
17.51 0.0536501
17.55 0.038195
17.59 0.0685409
17.63 0.00916885
17.67 0.0385839
17.71 0.00456498
17.75 0.01859
17.79 0.0674558
17.83 -0.0129836
17.87 0.00642836
17.91 0.0127404
17.95 0.0289037
17.99 0.071336
18.03 0.0383491
18.07 0.0179501
18.11 0.0158506
18.15 0.0210847
18.19 0.0414864
18.23 0.0558926
18.27 0.032869
18.31 0.03747
18.35 0.0275944
18.39 0.0286751
18.43 0.0605039
18.47 0.0606936
18.51 0.0701006
18.55 0.0653027
18.59 0.0669204
18.63 0.0563622
18.67 0.0631486
18.71 0.00479575
18.75 0.0700684
18.79 0.0213259
18.83 0.0450093
18.87 0.0646347
18.91 0.0409065
18.95 -0.000405364
18.99 0.0388938
19.03 0.070106
19.07 -0.011059
19.11 0.0197678
19.15 0.0563826
19.19 0.0455046
19.23 0.032411
19.27 0.0436961
19.31 0.0552067
19.35 0.0485641
19.39 -0.0075948
19.43 0.0297343
19.47 0.0235644
19.51 -0.00136047
19.55 0.0109418
19.59 0.0364065
19.63 0.0296682
19.67 -0.00326756
19.71 0.0111897
19.75 0.05981
19.79 0.0212757
19.83 0.0230073
19.87 0.0242399
19.91 0.0356352
19.95 -0.00124611
19.99 0.0445422
20.03 0.0427289
20.07 0.0263549
20.11 0.00796167
20.15 0.0176718
20.19 -0.00353406
20.23 -0.0049943
20.27 0.010034
20.31 0.018804
20.35 0.0185185
20.39 0.0502289
20.43 0.0108844
20.47 -0.00329701
20.51 0.0158797
20.55 0.0232192
20.59 0.00854136
20.63 0.0291299
20.67 0.0292935
20.71 0.0385131
20.75 0.0356232
20.79 0.0241398
20.83 0.0469837
20.87 0.00448601
20.91 0.0154128
20.95 0.0213386
20.99 0.00590507
21.03 0.0172541
21.07 -0.00588513
21.11 0.0482286
21.15 0.0388249
21.19 0.0765682
21.23 0.0236548
21.27 0.000903582
21.31 0.0682101
21.35 0.0229826
21.39 0.0401209
21.43 0.0316737
21.47 0.0168046
21.51 0.0398692
21.55 0.0715371
21.59 0.0268253
21.63 0.0519248
21.67 0.0075034
21.71 0.0261046
21.75 0.00888539
21.79 0.0259236
21.83 0.00444217
21.87 -0.0197465
21.91 0.0122828
21.95 0.0476596
21.99 0.0394249
22.03 0.0233487
22.07 0.0229826
22.11 0.0101306
22.15 -0.00522094
22.19 0.0178145
22.23 0.0383029
22.27 -0.00137406
22.31 0.00410915
22.35 -0.00299123
22.39 0.0237209
22.43 0.0213571
22.47 0.0270588
22.51 0.0114741
22.55 0.00546904
22.59 0.00681564
22.63 0.0260984
22.67 0.0155541
22.71 0.0278847
22.75 0.00113233
22.79 0.00447636
22.83 0.0173871
22.87 0.0157238
22.91 -0.000512953
22.95 0.0216768
22.99 -0.00334679
23.03 0.0176924
23.07 0.03033
23.11 0.0274509
23.15 -0.0109202
23.19 -0.00945975
23.23 0.0455309
23.27 0.0537089
23.31 0.0376312
23.35 0.0492928
23.39 0.0664961
23.43 0.085772
23.47 0.143605
23.51 0.226793
23.55 0.252994
23.59 0.268326
23.63 0.259221
23.67 0.157118
23.71 0.141227
23.75 0.0682939
23.79 0.0615012
23.83 0.00675646
23.87 0.0329315
23.91 0.0237806
23.95 0.0634189
23.99 0.0222369
24.03 0.0417337
24.07 0.018344
24.11 0.0274
24.15 0.0460011
24.19 0.037177
24.23 0.0376911
24.27 0.0280254
24.31 0.0207778
24.35 0.0454859
24.39 0.00990098
24.43 -0.0185728
24.47 0.0250443
24.51 0.0179722
24.55 0.0220645
24.59 0.0145962
24.63 0.0116884
24.67 0.00781688
24.71 0.0274852
24.75 -0.0101275
24.79 0.053911
24.83 0.00616786
24.87 0.0325704
24.91 0.0306042
24.95 0.0177861
24.99 0.0545364
25.03 0.0477479
25.07 0.0424936
25.11 0.0292189
25.15 0.0525535
25.19 0.0923367
25.23 0.084218
25.27 0.151487
25.31 0.0749614
25.35 0.106487
25.39 0.0586772
25.43 0.0225341
25.47 0.00915239
25.51 0.0464356
25.55 0.0204056
25.59 0.0248654
25.63 0.0225318
25.67 0.0468584
25.71 0.007891
25.75 0.0203173
25.79 0.00199765
25.83 0.0227524
25.87 0.0153705
25.91 -0.0104263
25.95 0.00282952
25.99 0.011688
26.03 0.0338429
26.07 -0.017323
26.11 0.0355653
26.15 0.00825662
26.19 0.0335479
26.23 -0.00211861
26.27 0.0397945
26.31 0.0238193
26.35 0.0209125
26.39 0.0454706
26.43 -0.00252652
26.47 -0.000375292
26.51 0.0135132
26.55 0.0126464
26.59 0.0300862
26.63 0.0140979
26.67 0.0104507
26.71 0.0140961
26.75 0.0145795
26.79 0.0267577
26.83 -0.010201
26.87 0.00819734
26.91 0.00247626
26.95 -0.00722141
26.99 0.00534163
27.03 0.0101274
27.07 0.0482164
27.11 0.0294011
27.15 0.00862229
27.19 0.0394735
27.23 0.0308375
27.27 0.0189853
27.31 0.0286722
27.35 0.0386869
27.39 0.0528343
27.43 0.0212435
27.47 0.0083909
27.51 0.0151257
27.55 0.00983918
27.59 -0.0153897
27.63 0.0321406
27.67 0.0704075
27.71 0.0325539
27.75 -0.0158077
27.79 0.00955494
27.83 0.0150772
27.87 0.019368
27.91 0.0408751
27.95 0.036053
27.99 0.0464013
28.03 0.00941215
28.07 -0.00317133
28.11 0.0340287
28.15 0.0323094
28.19 0.0222893
28.23 0.0445198
28.27 0.0384297
28.31 0.0230993
28.35 -0.0161137
28.39 0.0224452
28.43 0.0406224
28.47 0.0152808
28.51 0.0351603
28.55 0.0645689
28.59 0.0653962
28.63 0.0683423
28.67 0.0862462
28.71 0.157666
28.75 0.185077
28.79 0.221158
28.83 0.156387
28.87 0.141712
28.91 0.0721616
28.95 0.0600735
28.99 0.0394327
29.03 0.0456137
29.07 0.0301184
29.11 0.0275447
29.15 0.0338418
29.19 -0.00344352
29.23 0.0444198
29.27 0.0186964
29.31 0.0414898
29.35 0.0501873
29.39 0.0479672
29.43 0.0433911
29.47 0.0363247
29.51 0.0152285
29.55 0.0381999
29.59 0.0390209
29.63 0.0777606
29.67 0.043336
29.71 0.0414311
29.75 0.0435687
29.79 0.0703322
29.83 0.0822591
29.87 0.113306
29.91 0.212858
29.95 0.312198
29.99 0.560691
30.03 1.09332
30.07 1.82898
30.11 2.76449
30.15 3.30874
30.19 3.03694
30.23 2.14981
30.27 1.20563
30.31 0.538901
30.35 0.305528
30.39 0.15367
30.43 0.115752
30.47 0.103202
30.51 0.069688
30.55 0.0136818
30.59 0.037614
30.63 0.0485412
30.67 0.0664467
30.71 0.0627636
30.75 0.035115
30.79 0.026819
30.83 0.0138411
30.87 0.0206634
30.91 0.0607909
30.95 0.00974764
30.99 0.0125537
31.03 -0.000609149
31.07 -0.000256719
31.11 -0.0133955
31.15 0.0196489
31.19 0.0283236
31.23 -0.0101449
31.27 0.0313069
31.31 0.000681038
31.35 0.0214118
31.39 -0.00490363
31.43 0.0191626
31.47 0.0186743
31.51 0.0210801
31.55 0.00847549
31.59 0.0353409
31.63 0.016771
31.67 0.0218018
31.71 0.00472235
31.75 0.0254798
31.79 0.0479549
31.83 0.0316952
31.87 -0.00922755
31.91 0.0134513
31.95 0.0236873
31.99 -0.0052368
32.03 0.00139022
32.07 0.0346379
32.11 0.0298508
32.15 0.00995212
32.19 0.0320672
32.23 -0.00322047
32.27 0.0287803
32.31 -0.0185146
32.35 -0.00722932
32.39 -0.0101629
32.43 0.0470982
32.47 0.0197722
32.51 0.0223656
32.55 0.0151767
32.59 -0.00672426
32.63 0.00893504
32.67 0.0274064
32.71 0.0259939
32.75 0.0127947
32.79 0.00350786
32.83 0.0143166
32.87 0.000611427
32.91 0.0224295
32.95 0.00670761
32.99 0.000111673
33.03 0.0144199
33.07 0.00900421
33.11 -0.00686968
33.15 0.0150818
33.19 0.000409699
33.23 0.00161096
33.27 0.00245148
33.31 -0.0222707
33.35 0.00010272
33.39 0.00207347
33.43 0.0198283
33.47 0.0105546
33.51 0.0186318
33.55 0.0171637
33.59 0.0124097
33.63 0.0170244
33.67 -0.0145886
33.71 0.00940496
33.75 0.0187559
33.79 0.00619377
33.83 0.00720231
33.87 -0.00773156
33.91 -0.00791817
33.95 -0.022329
33.99 0.00821752
34.03 0.0099806
34.07 -0.00828599
34.11 -0.00321327
34.15 -0.00774989
34.19 0.00616978
34.23 -0.000678706
34.27 0.0127274
34.31 0.00712945
34.35 0.00847289
34.39 0.0219869
34.43 0.0128925
34.47 0.0123363
34.51 0.012365
34.55 0.0259008
34.59 0.070749
34.63 0.104591
34.67 0.179068
34.71 0.313893
34.75 0.421822
34.79 0.52813
34.83 0.551559
34.87 0.468086
34.91 0.387147
34.95 0.264368
34.99 0.163109
35.03 0.108619
35.07 0.0566488
35.11 0.0272041
35.15 0.0534476
35.19 -0.002478
35.23 0.0118963
35.27 -0.0191927
35.31 -0.022324
35.35 -0.0139576
35.39 0.00457766
35.43 0.00345754
35.47 0.00471802
35.51 0.00698934
35.55 -0.0144094
35.59 0.00666224
35.63 -0.0136217
35.67 0.000354693
35.71 -0.000596572
35.75 0.00262474
35.79 0.00365296
35.83 -0.00878711
35.87 0.0153366
35.91 0.0380995
35.95 0.0314202
35.99 0.0641596
36.03 0.0898845
36.07 0.154637
36.11 0.247042
36.15 0.334884
36.19 0.588999
36.23 0.94552
36.27 1.28301
36.31 1.5658
36.35 1.67997
36.39 1.56625
36.43 1.30449
36.47 0.907055
36.51 0.59307
36.55 0.34192
36.59 0.194487
36.63 0.106213
36.67 0.075911
36.71 0.0295961
36.75 0.0176541
36.79 0.0311089
36.83 0.0254344
36.87 0.00182661
36.91 0.0117743
36.95 0.0107883
36.99 0.000270905
37.03 0.0141455
37.07 0.00578438
37.11 0.0126947
37.15 0.0136943
37.19 0.0463944
37.23 0.0531803
37.27 0.104032
37.31 0.106381
37.35 0.236068
37.39 0.331173
37.43 0.489637
37.47 0.639425
37.51 0.723734
37.55 0.720253
37.59 0.63414
37.63 0.473998
37.67 0.349865
37.71 0.212523
37.75 0.12359
37.79 0.0561378
37.83 0.0264266
37.87 0.0478479
37.91 0.023324
37.95 0.0105669
37.99 0.0305924
38.03 0.0130607
38.07 -0.00789874
38.11 0.000732028
38.15 -0.00623143
38.19 -0.0117335
38.23 -0.000304911
38.27 -0.00377105
38.31 0.0282414
38.35 0.0162466
38.39 0.0246
38.43 0.0409186
38.47 0.0456915
38.51 0.0978701
38.55 0.0994752
38.59 0.13183
38.63 0.144082
38.67 0.125322
38.71 0.10567
38.75 0.0755999
38.79 0.0528443
38.83 0.0342956
38.87 0.0346213
38.91 0.0163811
38.95 0.00676354
38.99 0.0263122
39.03 0.017651
39.07 0.0199179
39.11 0.0127742
39.15 0.00607877
39.19 0.022258
39.23 0.017934
39.27 0.0153409
39.31 0.0290396
39.35 0.0371727
39.39 0.00670741
39.43 0.0104915
39.47 0.0271039
39.51 0.0408143
39.55 0.034011
39.59 0.0205501
39.63 -0.00572536
39.67 0.00813552
39.71 -0.00161069
39.75 0.0169074
39.79 0.00286189
39.83 0.0201669
39.87 0.023015
39.91 0.0024533
39.95 0.0154042
39.99 0.00299266
40.03 -0.00339093
40.07 0.00097078
40.11 0.00446989
40.15 0.022155
40.19 -0.0178046
40.23 -0.000423356
40.27 0.0158984
40.31 -0.012349
40.35 0.0136607
40.39 0.00215373
40.43 0.00681969
40.47 0.000119674
40.51 0.00260942
40.55 0.0233147
40.59 0.00604187
40.63 0.0147474
40.67 0.0303943
40.71 0.0325043
40.75 0.0797068
40.79 0.0648009
40.83 0.0698819
40.87 0.0534292
40.91 0.0428499
40.95 0.0325423
40.99 0.00203046
41.03 0.00723632
41.07 0.0103845
41.11 0.0261589
41.15 0.0156544
41.19 0.0331317
41.23 0.0182924
41.27 0.0635451
41.31 0.0980253
41.35 0.127684
41.39 0.195804
41.43 0.211439
41.47 0.215857
41.51 0.214046
41.55 0.193175
41.59 0.147789
41.63 0.0802926
41.67 0.0642016
41.71 0.00386222
41.75 0.0144434
41.79 0.0394885
41.83 0.0202493
41.87 0.00218734
41.91 0.0205231
41.95 0.00895341
41.99 -0.00365566
42.03 -0.0128607
42.07 0.0221216
42.11 0.0142521
42.15 0.028425
42.19 -0.0048104
42.23 -0.00365129
42.27 0.0323308
42.31 0.0108167
42.35 0.00643009
42.39 -0.00224912
42.43 0.0146768
42.47 0.0119189
42.51 0.0112897
42.55 0.0125981
42.59 -0.0109359
42.63 0.0102838
42.67 0.00589667
42.71 0.0107201
42.75 0.00434498
42.79 0.00118784
42.83 0.0201805
42.87 0.0052419
42.91 0.0261702
42.95 0.00781591
42.99 0.00853908
43.03 0.0162337
43.07 0.0127738
43.11 0.00736502
43.15 -0.000312228
43.19 0.00135381
43.23 0.0350376
43.27 -0.00226277
43.31 0.0395407
43.35 4.44317e-05
43.39 0.00157342
43.43 0.0286639
43.47 0.00287142
43.51 0.0139623
43.55 0.00849981
43.59 0.0123505
43.63 0.0175186
43.67 0.0202008
43.71 -0.00613163
43.75 -0.00715337
43.79 -0.00255863
43.83 0.0208969
43.87 -0.00328346
43.91 -0.012202
43.95 0.00135327
43.99 -0.0181387
44.03 0.0181185
44.07 0.00148123
44.11 0.00233564
44.15 0.0046887
44.19 0.0134959
44.23 -0.00389724
44.27 0.0116655
44.31 -0.00884812
44.35 0.0202338
44.39 0.014386
44.43 0.0331278
44.47 0.020098
44.51 0.00850005
44.55 0.0461916
44.59 0.0481189
44.63 0.0779756
44.67 0.138124
44.71 0.135233
44.75 0.179435
44.79 0.17207
44.83 0.123283
44.87 0.137342
44.91 0.104662
44.95 0.0983946
44.99 0.0506438
45.03 0.0371929
45.07 0.026174
45.11 0.0152978
45.15 0.0119086
45.19 0.0112344
45.23 0.00940303
45.27 0.0116113
45.31 0.0237188
45.35 -0.0104215
45.39 0.0308321
45.43 0.00590788
45.47 -0.00809033
45.51 0.00620254
45.55 0.0160605
45.59 0.0215939
45.63 0.0147756
45.67 -0.00593364
45.71 -0.00325172
45.75 0.0216253
45.79 0.0186258
45.83 0.0208365
45.87 0.0169844
45.91 0.0131974
45.95 -0.018003
45.99 -0.0009138
46.03 -0.00048308
46.07 0.0134601
46.11 0.00362456
46.15 -0.00428111
46.19 -0.00357433
46.23 0.0208245
46.27 0.00819677
46.31 0.00749952
46.35 -0.00771805
46.39 0.0145096
46.43 0.0179673
46.47 0.00532689
46.51 0.000286252
46.55 -0.00959673
46.59 0.0178546
46.63 -0.00311749
46.67 0.0196987
46.71 0.00318808
46.75 -0.000839869
46.79 -0.00460995
46.83 0.00991679
46.87 0.011679
46.91 0.0175626
46.95 0.026347
46.99 0.0355916
47.03 0.0311807
47.07 0.0293213
47.11 0.0277972
47.15 0.0153842
47.19 0.0385951
47.23 0.0352519
47.27 0.0545729
47.31 0.0497896
47.35 0.0808082
47.39 0.0805107
47.43 0.161866
47.47 0.215218
47.51 0.286395
47.55 0.3701
47.59 0.399521
47.63 0.424936
47.67 0.388323
47.71 0.363499
47.75 0.34087
47.79 0.331551
47.83 0.348209
47.87 0.405127
47.91 0.493242
47.95 0.766479
47.99 1.19574
48.03 2.10631
48.07 3.41746
48.11 4.91508
48.15 6.36744
48.19 6.38581
48.23 5.96422
48.27 4.91844
48.31 3.52171
48.35 2.22459
48.39 1.33307
48.43 0.849893
48.47 0.54302
48.51 0.356459
48.55 0.259092
48.59 0.187279
48.63 0.167599
48.67 0.118884
48.71 0.107091
48.75 0.0937017
48.79 0.0955245
48.83 0.102851
48.87 0.100712
48.91 0.150714
48.95 0.151709
48.99 0.21086
49.03 0.229903
49.07 0.237692
49.11 0.275098
49.15 0.254003
49.19 0.235404
49.23 0.180389
49.27 0.152479
49.31 0.129568
49.35 0.100471
49.39 0.0658702
49.43 0.0342603
49.47 0.0223112
49.51 0.0224015
49.55 0.0216566
49.59 0.0259513
49.63 0.0329115
49.67 0.0169145
49.71 0.0259229
49.75 0.0243166
49.79 0.00905758
49.83 0.0208082
49.87 0.0262889
49.91 0.0406807
49.95 0.0481303
49.99 0.0713041
50.03 0.102942
50.07 0.158158
50.11 0.216587
50.15 0.312533
50.19 0.442987
50.23 0.596651
50.27 0.783018
50.31 0.889563
50.35 0.972532
50.39 0.900663
50.43 0.697274
50.47 0.52805
50.51 0.341437
50.55 0.242578
50.59 0.156916
50.63 0.110135
50.67 0.0509693
50.71 0.0281129
50.75 0.0235749
50.79 0.0223201
50.83 0.00232038
50.87 0.00209821
50.91 1.02543e-05
50.95 -0.00874294
50.99 0.00566168
51.03 0.0147992
51.07 0.0105882
51.11 0.00845405
51.15 -0.00613872
51.19 -0.00149729
51.23 -0.0144115
51.27 -0.0035322
51.31 0.000655261
51.35 -0.0110476
51.39 -0.000371099
51.43 0.00029796
51.47 -0.00390349
51.51 0.014667
51.55 0.00918093
51.59 0.0283395
51.63 0.035488
51.67 0.0471249
51.71 0.0778587
51.75 0.0833665
51.79 0.120666
51.83 0.158577
51.87 0.158287
51.91 0.190475
51.95 0.187975
51.99 0.163651
52.03 0.149025
52.07 0.151087
52.11 0.148098
52.15 0.126797
52.19 0.0928759
52.23 0.0845052
52.27 0.0593642
52.31 0.0611178
52.35 0.0200512
52.39 0.0127872
52.43 -0.00238977
52.47 -0.0125289
52.51 -0.00812504
52.55 0.00317449
52.59 -0.0101301
52.63 -0.0122043
52.67 -0.0017009
52.71 -0.00307587
52.75 -0.00406482
52.79 0.00528687
52.83 -0.00167661
52.87 -0.00562045
52.91 0.00347724
52.95 -0.00148083
52.99 0.00262429
53.03 -0.0159317
53.07 0.00120154
53.11 -0.00489596
53.15 -0.00385569
53.19 -0.0097701
53.23 -0.0118404
53.27 0.00535496
53.31 0.00916362
53.35 0.00361064
53.39 -0.000120952
53.43 0.0165869
53.47 0.0149539
53.51 0.0399603
53.55 0.01684
53.59 0.0364494
53.63 0.0526934
53.67 0.065194
53.71 0.0862637
53.75 0.119704
53.79 0.155208
53.83 0.176731
53.87 0.173263
53.91 0.159316
53.95 0.162208
53.99 0.113012
54.03 0.0865085
54.07 0.0649992
54.11 0.0438765
54.15 0.0231067
54.19 0.023805
54.23 0.00171082
54.27 0.0191333
54.31 0.0195954
54.35 0.00418845
54.39 0.00968546
54.43 -0.00710127
54.47 0.00699237
54.51 0.0180238
54.55 0.00125178
54.59 -0.00148314
54.63 -0.00139962
54.67 -0.00527198
54.71 -0.0104478
54.75 0.00326296
54.79 -0.00197277
54.83 0.0127178
54.87 0.00847037
54.91 0.00997755
54.95 -0.000867408
54.99 -0.00216691
55.03 0.0181941
55.07 0.0117601
55.11 0.0168141
55.15 0.0263637
55.19 0.0423668
55.23 0.013326
55.27 0.0292645
55.31 0.0100932
55.35 0.016446
55.39 0.0352793
55.43 0.0175369
55.47 0.0089175
55.51 -0.0100491
55.55 -0.00301486
55.59 0.00587348
55.63 -0.00549297
55.67 0.0174488
55.71 -0.0103139
55.75 0.00446242
55.79 -0.0152527
55.83 0.00842516
55.87 -0.00581784
55.91 0.0077265
55.95 -0.00187024
55.99 -0.00851246
56.03 0.00234416
56.07 0.00447786
56.11 -0.0100181
56.15 -0.0073686
56.19 0.0116157
56.23 0.0123995
56.27 0.0164815
56.31 -0.00907596
56.35 0.0159364
56.39 0.00777336
56.43 0.00249161
56.47 0.0034131
56.51 0.00410966
56.55 0.00653692
56.59 0.014455
56.63 0.0160244
56.67 -0.0089222
56.71 0.00447021
56.75 0.0121396
56.79 0.0168574
56.83 0.0266814
56.87 0.0204584
56.91 0.0244961
56.95 0.0300932
56.99 0.0530069
57.03 0.0503477
57.07 0.0738991
57.11 0.06119
57.15 0.0594334
57.19 0.0520108
57.23 0.0516846
57.27 0.0666849
57.31 0.0462107
57.35 0.0599073
57.39 0.0417684
57.43 0.0339643
57.47 0.0289327
57.51 0.0453329
57.55 0.0497073
57.59 0.0522052
57.63 0.0748913
57.67 0.122161
57.71 0.127125
57.75 0.172055
57.79 0.243117
57.83 0.303257
57.87 0.371388
57.91 0.439746
57.95 0.501095
57.99 0.527231
58.03 0.5223
58.07 0.434981
58.11 0.34235
58.15 0.244597
58.19 0.187853
58.23 0.11057
58.27 0.0826803
58.31 0.0555156
58.35 0.0388163
58.39 0.0237686
58.43 0.0178045
58.47 0.00590511
58.51 0.0268228
58.55 0.0186275
58.59 0.00511716
58.63 0.0127581
58.67 0.00582819
58.71 0.00670046
58.75 0.0064512
58.79 0.0126791
58.83 0.00734968
58.87 0.0114603
58.91 -0.00446587
58.95 0.0185993
58.99 0.0223069
59.03 0.00882425
59.07 0.0140032
59.11 -0.000328077
59.15 0.00753098
59.19 0.0055026
59.23 -0.0104964
59.27 0.0171912
59.31 0.00716204
59.35 0.0106216
59.39 -0.00819292
59.43 0.00600756
59.47 0.00745219
59.51 0.00402381
59.55 0.0187967
59.59 0.0112469
59.63 0.00672774
59.67 0.00626354
59.71 0.0133608
59.75 0.0014252
59.79 0.00681398
59.83 -0.00947863
59.87 0.0073112
59.91 0.00463341
59.95 0.0172187
59.99 0.00368991
60.03 -0.00478444
60.07 0.00218339
60.11 -0.00757539
60.15 -0.00391497
60.19 -0.0108244
60.23 0.00176044
60.27 -0.0160311
60.31 -0.0119086
60.35 0.00494673
60.39 0.00595598
60.43 -0.00551241
60.47 0.00627457
60.51 0.0112324
60.55 0.0127209
60.59 0.019146
60.63 -0.00995334
60.67 -0.0138716
60.71 -0.00120714
60.75 0.0272712
60.79 0.0147313
60.83 0.0150571
60.87 0.0150303
60.91 0.00852212
60.95 0.00231182
60.99 0.00631551
61.03 -0.00415077
61.07 0.00805306
61.11 0.0200911
61.15 0.00415908
61.19 0.0177216
61.23 0.033676
61.27 0.0259165
61.31 0.0132318
61.35 0.0281968
61.39 0.015295
61.43 0.0250386
61.47 0.0364432
61.51 0.0808621
61.55 0.0779266
61.59 0.124227
61.63 0.146724
61.67 0.205157
61.71 0.285894
61.75 0.396681
61.79 0.515633
61.83 0.61049
61.87 0.663141
61.91 0.563027
61.95 0.457698
61.99 0.344742
62.03 0.250505
62.07 0.192667
62.11 0.136835
62.15 0.101678
62.19 0.0735726
62.23 0.0726302
62.27 0.0508302
62.31 0.0277528
62.35 0.0382648
62.39 0.0587172
62.43 0.07025
62.47 0.0866849
62.51 0.0894774
62.55 0.117462
62.59 0.113365
62.63 0.137359
62.67 0.145702
62.71 0.140366
62.75 0.128964
62.79 0.0994557
62.83 0.0913059
62.87 0.0802255
62.91 0.0625779
62.95 0.0417285
62.99 0.0340813
63.03 0.030053
63.07 0.00983444
63.11 0.011847
63.15 0.0266017
63.19 0.0347913
63.23 0.0275892
63.27 0.02132
63.31 0.0291501
63.35 0.0065872
63.39 0.0203414
63.43 0.0154364
63.47 0.0434715
63.51 0.0172732
63.55 0.00995655
63.59 0.0235443
63.63 0.00595429
63.67 0.00376018
63.71 0.0203591
63.75 -0.0123291
63.79 0.00944295
63.83 0.0223103
63.87 0.0011989
63.91 0.00265791
63.95 0.00881547
63.99 0.00100297
64.03 0.0111478
64.07 -0.0136659
64.11 -0.00730201
64.15 0.00368142
64.19 -0.0156859
64.23 0.00760625
64.27 -0.00343396
64.31 0.00975572
64.35 0.0129338
64.39 0.00302653
64.43 0.00292666
64.47 -0.00553552
64.51 0.004247
64.55 0.00621272
64.59 0.00564032
64.63 0.0153195
64.67 0.0287238
64.71 0.0407873
64.75 0.0381519
64.79 0.0494647
64.83 0.0675431
64.87 0.0753614
64.91 0.09465
64.95 0.100869
64.99 0.0819434
65.03 0.113447
65.07 0.0820314
65.11 0.0872807
65.15 0.0723037
65.19 0.0607962
65.23 0.0508646
65.27 0.0290256
65.31 0.0372969
65.35 0.0255183
65.39 0.0293767
65.43 0.0264191
65.47 0.047909
65.51 0.0426614
65.55 0.0621389
65.59 0.0461622
65.63 0.0309337
65.67 0.0220415
65.71 0.0170968
65.75 0.0287517
65.79 0.0123551
65.83 0.00357353
65.87 0.0171579
65.91 0.0071752
65.95 0.0140586
65.99 -0.00593245
66.03 -0.00104017
66.07 0.00862708
66.11 0.00359306
66.15 -0.0152256
66.19 -0.00687224
66.23 0.0103939
66.27 0.00276836
66.31 0.00226117
66.35 -0.00871861
66.39 -0.0012884
66.43 0.00801858
66.47 -0.00762188
66.51 -0.0106519
66.55 -0.00820638
66.59 -0.000765608
66.63 0.00130579
66.67 0.00457689
66.71 0.00437535
66.75 -0.0043457
66.79 -0.000298757
66.83 0.000819928
66.87 0.0040922
66.91 0.00513537
66.95 0.0107487
66.99 0.0022529
67.03 0.0128962
67.07 -0.00405585
67.11 0.00189481
67.15 -0.000704821
67.19 -0.00126272
67.23 0.00293388
67.27 0.00446389
67.31 0.0134328
67.35 0.00362491
67.39 0.0041362
67.43 -0.00850329
67.47 -0.00263503
67.51 9.78069e-05
67.55 0.0171386
67.59 0.00449162
67.63 0.00607284
67.67 0.02451
67.71 0.0277701
67.75 0.0275351
67.79 0.0267613
67.83 0.0398216
67.87 0.0470004
67.91 0.0512472
67.95 0.0563495
67.99 0.0497139
68.03 0.0600769
68.07 0.0515574
68.11 0.0527468
68.15 0.0557579
68.19 0.0555264
68.23 0.0255617
68.27 0.0336792
68.31 0.034276
68.35 0.0171895
68.39 0.00711259
68.43 0.012839
68.47 0.0119368
68.51 0.00656888
68.55 0.00598528
68.59 0.00663094
68.63 0.0085443
68.67 0.00825675
68.71 0.00726955
68.75 0.00022937
68.79 0.00843026
68.83 -0.0048576
68.87 -0.00769016
68.91 0.00243071
68.95 0.0126666
68.99 -0.00492112
69.03 0.00265575
69.07 -0.00881913
69.11 0.00150383
69.15 -0.00136373
69.19 -0.00846941
69.23 0.00300359
69.27 0.0132431
69.31 0.00833097
69.35 -0.00481082
69.39 0.00849084
69.43 -0.00181012
69.47 0.00313579
69.51 0.00274676
69.55 0.00948529
69.59 -0.00200264
69.63 -0.00192124
69.67 0.00861364
69.71 -0.0087252
69.75 -0.00303914
69.79 0.0188324
69.83 0.0156752
69.87 0.00596616
69.91 0.0309259
69.95 0.0244085
69.99 0.0279471
70.03 0.0276409
70.07 0.0401717
70.11 0.0474764
70.15 0.0779404
70.19 0.12679
70.23 0.132502
70.27 0.129769
70.31 0.140418
70.35 0.139814
70.39 0.106973
70.43 0.0975702
70.47 0.0735342
70.51 0.0372166
70.55 0.0281464
70.59 0.0275009
70.63 0.0185595
70.67 -0.0128342
70.71 0.0229808
70.75 0.00451659
70.79 0.0229015
70.83 0.0142699
70.87 0.0470312
70.91 0.0524597
70.95 0.0659671
70.99 0.0743539
71.03 0.0864394
71.07 0.097581
71.11 0.0985172
71.15 0.134148
71.19 0.118758
71.23 0.134548
71.27 0.152173
71.31 0.156276
71.35 0.155157
71.39 0.140362
71.43 0.135207
71.47 0.117179
71.51 0.1054
71.55 0.0867177
71.59 0.0576757
71.63 0.0491976
71.67 0.0426638
71.71 0.0325816
71.75 0.00537409
71.79 0.0126981
71.83 0.0123108
71.87 0.00131078
71.91 0.0204861
71.95 -0.00806397
71.99 0.008203
72.03 -0.00604468
72.07 0.00507173
72.11 -0.00624113
72.15 -0.00209528
72.19 0.00693003
72.23 -0.0112582
72.27 0.000646453
72.31 0.00786725
72.35 0.000290581
72.39 0.00505016
72.43 0.0086471
72.47 -0.0121272
72.51 0.000402211
72.55 0.00655355
72.59 -0.00646494
72.63 0.0150636
72.67 -0.0102481
72.71 -0.00830033
72.725 -0.0162294