File: data/xrd/xy/2019-05-29T19_56_50.129046+00_00_LBL_A1.xy
'Id: "" Comment: "Integrate frame 4Fluorophenyl_01_002.gfrmwith cursor Wedge Cursor #1" Operator: "UC Berkeley" Anode: "Co" Scantype: "TwoTheta" TimePerStep: "600"
14.31 -0.0254518
14.345 0.0318258
14.38 0.0432781
14.415 0.0248913
14.45 -0.00802443
14.485 0.000151474
14.52 0.0189993
14.555 0.00727306
14.59 0.00782407
14.625 0.0116305
14.66 0.0279062
14.695 -0.0182955
14.73 0.0231714
14.765 0.0128106
14.8 0.034679
14.835 0.0230432
14.87 0.0442963
14.905 -0.0185646
14.94 -0.0186205
14.975 0.0281084
15.01 0.0604108
15.045 0.000667878
15.08 0.00621305
15.115 -0.000167982
15.15 0.0494239
15.185 0.0246734
15.22 0.0388487
15.255 0.0160759
15.29 -0.0114465
15.325 -0.00433721
15.36 0.0286335
15.395 0.0243084
15.43 -0.00100233
15.465 0.0623831
15.5 0.0234388
15.535 0.0281048
15.57 0.0397835
15.605 0.0167015
15.64 0.0202328
15.675 0.038267
15.71 0.00705617
15.745 0.00355144
15.78 0.0202001
15.815 0.0149796
15.85 -0.0123557
15.885 0.00585414
15.92 0.000465884
15.955 -0.00273912
15.99 0.0111842
16.025 0.0282581
16.06 0.0102381
16.095 0.0155966
16.13 0.0143561
16.165 0.00240328
16.2 -0.024509
16.235 0.0051961
16.27 0.0413618
16.305 0.0488936
16.34 0.017618
16.375 0.0286453
16.41 0.0100381
16.445 0.0271837
16.48 0.0211965
16.515 0.0128301
16.55 0.0136365
16.585 -0.0246251
16.62 0.0111075
16.655 0.0118577
16.69 0.00130435
16.725 0.0142078
16.76 0.0186231
16.795 0.0430794
16.83 0.00688066
16.865 0.0269754
16.9 0.0236167
16.935 0.0462086
16.97 0.00887502
17.005 -0.000656276
17.04 0.0180282
17.075 0.0227201
17.11 0.0101371
17.145 0.0571475
17.18 0.0394926
17.215 0.0096667
17.25 0.00434683
17.285 0.0068727
17.32 0.0210131
17.355 0.0145414
17.39 0.0159075
17.425 0.027592
17.46 0.00565399
17.495 -0.00508299
17.53 0.0284149
17.565 0.0311484
17.6 0.0404471
17.635 0.030709
17.67 -0.000353402
17.705 0.0171657
17.74 -0.00207341
17.775 0.0234481
17.81 0.0152408
17.845 0.00568013
17.88 0.0339606
17.915 0.00133407
17.95 0.0282711
17.985 0.0325582
18.02 0.0312714
18.055 0.0373931
18.09 0.010581
18.125 -0.00127962
18.16 0.0285626
18.195 -0.00626997
18.23 0.0101634
18.265 -0.00784329
18.3 0.013983
18.335 -0.00223886
18.37 0.0137686
18.405 0.0217288
18.44 0.0150928
18.475 0.0026996
18.51 0.0196433
18.545 0.0171698
18.58 0.0264852
18.615 0.0653257
18.65 0.055775
18.685 0.111329
18.72 0.10446
18.755 0.0869927
18.79 0.115263
18.825 0.139873
18.86 0.0942
18.895 0.0240971
18.93 0.0126357
18.965 0.0419443
19 0.0497055
19.035 0.0306473
19.07 0.00381989
19.105 -0.0121058
19.14 -0.00748244
19.175 -0.0055241
19.21 0.00680432
19.245 -0.0125251
19.28 -0.0119371
19.315 -0.018253
19.35 0.0542455
19.385 0.0445168
19.42 0.0412497
19.455 -0.0118118
19.49 -0.00605571
19.525 0.0102285
19.56 0.017922
19.595 0.00873592
19.63 0.0271191
19.665 0.00416531
19.7 0.0491131
19.735 -0.00345204
19.77 0.0235809
19.805 0.0330449
19.84 0.0377232
19.875 0.0195259
19.91 -0.00124019
19.945 -0.00429571
19.98 0.0328502
20.015 0.0103027
20.05 0.0423266
20.085 0.018124
20.12 0.00909928
20.155 0.00129435
20.19 -0.00640735
20.225 0.0360043
20.26 -0.00965325
20.295 0.0126799
20.33 -0.0121536
20.365 0.00219645
20.4 0.0257939
20.435 0.0240485
20.47 0.0452446
20.505 0.065589
20.54 0.0160666
20.575 0.0135331
20.61 0.0172625
20.645 0.0110185
20.68 0.0165298
20.715 0.0128933
20.75 0.0234927
20.785 0.00852799
20.82 0.0260511
20.855 0.0220567
20.89 0.0195275
20.925 0.0184674
20.96 -0.0243594
20.995 0.00907618
21.03 0.00376244
21.065 0.033087
21.1 0.030886
21.135 0.0232416
21.17 0.0243895
21.205 0.00324429
21.24 0.0417547
21.275 0.0175675
21.31 0.0270823
21.345 0.00328135
21.38 -0.0186586
21.415 0.0201779
21.45 0.00271096
21.485 0.0400721
21.52 0.00249907
21.555 0.0240103
21.59 0.0375134
21.625 -0.00515541
21.66 0.0140574
21.695 -0.01288
21.73 0.0337654
21.765 0.0206765
21.8 0.0205921
21.835 0.0283621
21.87 -0.0205153
21.905 0.0324856
21.94 -0.00402111
21.975 0.0325141
22.01 0.013156
22.045 0.00783842
22.08 -0.00191591
22.115 0.013214
22.15 0.0125705
22.185 0.00348448
22.22 0.0196617
22.255 0.00967584
22.29 0.00941502
22.325 0.0103675
22.36 -0.0243931
22.395 -0.00235754
22.43 -0.00765309
22.465 0.0221837
22.5 0.0195925
22.535 0.00395794
22.57 0.0241902
22.605 0.0197942
22.64 0.00895837
22.675 0.0115889
22.71 -0.0221303
22.745 0.00310885
22.78 -0.00707409
22.815 -0.0152682
22.85 0.0170172
22.885 0.029482
22.92 0.01522
22.955 0.0108149
22.99 0.0102035
23.025 0.0206514
23.06 0.0127466
23.095 -0.0200545
23.13 0.00330604
23.165 0.033603
23.2 0.0041765
23.235 0.0393195
23.27 -0.00563677
23.305 0.017427
23.34 0.0022772
23.375 0.0338654
23.41 0.00183559
23.445 0.0159443
23.48 0.0477177
23.515 0.0514695
23.55 0.0584356
23.585 0.0666044
23.62 0.157283
23.655 0.175105
23.69 0.214362
23.725 0.143392
23.76 0.0651666
23.795 0.0580385
23.83 -0.0238767
23.865 0.0174015
23.9 0.00951045
23.935 0.0005555
23.97 0.0105712
24.005 0.0119913
24.04 0.0169023
24.075 0.0216497
24.11 0.0119161
24.145 0.032424
24.18 0.0263642
24.215 0.0413622
24.25 0.029412
24.285 -0.00660388
24.32 0.0363561
24.355 -0.00870571
24.39 0.00767175
24.425 -0.00247713
24.46 0.0424957
24.495 0.0221181
24.53 0.0373515
24.565 0.0297616
24.6 0.0331166
24.635 0.00397334
24.67 0.0305278
24.705 0.0246064
24.74 -0.000119785
24.775 0.0532257
24.81 0.071219
24.845 0.0706118
24.88 0.136075
24.915 0.352033
24.95 0.558912
24.985 0.982489
25.02 1.31899
25.055 1.44902
25.09 1.31765
25.125 0.917869
25.16 0.49642
25.195 0.213909
25.23 0.10917
25.265 0.0564463
25.3 0.0319322
25.335 0.0297943
25.37 0.0292042
25.405 0.0210455
25.44 0.0339055
25.475 -0.0173298
25.51 0.0522791
25.545 0.0035028
25.58 0.0345463
25.615 0.0163927
25.65 0.0260883
25.685 -0.00724787
25.72 0.00848648
25.755 0.00762758
25.79 -0.00304822
25.825 0.00583065
25.86 -0.0235609
25.895 0.000744512
25.93 0.00192999
25.965 0.00252228
26 -0.0015398
26.035 -0.0172512
26.07 0.00631515
26.105 0.0187051
26.14 0.0355519
26.175 0.0324058
26.21 0.0110283
26.245 0.00502534
26.28 -0.0064538
26.315 0.00347459
26.35 -0.0147285
26.385 -0.0056545
26.42 0.00656589
26.455 0.00022737
26.49 -0.00625733
26.525 0.00353156
26.56 -0.00524384
26.595 0.00662956
26.63 0.0134749
26.665 -0.00476226
26.7 -0.00415732
26.735 -0.00686625
26.77 0.0174861
26.805 -0.0118419
26.84 -0.0134616
26.875 -0.023434
26.91 0.0286324
26.945 -0.020206
26.98 0.0158547
27.015 -0.00137682
27.05 0.0255273
27.085 0.0469277
27.12 0.070279
27.155 0.0976495
27.19 0.139141
27.225 0.150595
27.26 0.189654
27.295 0.140675
27.33 0.117249
27.365 0.043754
27.4 0.0144775
27.435 -0.00808022
27.47 -0.00792802
27.505 0.00696558
27.54 0.0147664
27.575 -0.00620543
27.61 -0.00232388
27.645 -0.0122089
27.68 -0.00787996
27.715 0.0249935
27.75 0.00196168
27.785 -0.0105633
27.82 0.0024928
27.855 -0.00677149
27.89 0.0057637
27.925 0.00921517
27.96 0.0319769
27.995 0.0154718
28.03 0.0170626
28.065 0.00120988
28.1 -5.06577e-05
28.135 0.0255702
28.17 0.0671757
28.205 0.0697398
28.24 0.0470215
28.275 0.0623657
28.31 0.0431528
28.345 -0.000333158
28.38 0.0168741
28.415 -0.0168006
28.45 0.00200631
28.485 -0.012976
28.52 0.00772116
28.555 -0.0159878
28.59 0.00292105
28.625 0.0103132
28.66 -0.0178596
28.695 -0.00571426
28.73 0.0145212
28.765 -0.0231925
28.8 -0.00345656
28.835 0.0157507
28.87 0.0282246
28.905 0.0146164
28.94 0.0468587
28.975 0.0383842
29.01 0.00510535
29.045 -0.00816465
29.08 0.0283622
29.115 0.0329652
29.15 -0.00369491
29.185 0.000355628
29.22 0.0182509
29.255 0.00943832
29.29 0.00998754
29.325 0.0270147
29.36 -0.0140194
29.395 0.0194957
29.43 0.00811839
29.465 -3.14184e-05
29.5 0.0347166
29.535 0.00836708
29.57 0.126801
29.605 0.199161
29.64 0.244791
29.675 0.252058
29.71 0.21141
29.745 0.186436
29.78 0.138224
29.815 0.0745257
29.85 0.0397151
29.885 0.0204821
29.92 0.0579753
29.955 0.073551
29.99 0.130688
30.025 0.208764
30.06 0.399284
30.095 0.615166
30.13 0.810241
30.165 0.914082
30.2 0.916687
30.235 0.743992
30.27 0.540232
30.305 0.3625
30.34 0.211711
30.375 0.150329
30.41 0.0805591
30.445 0.0880737
30.48 0.075025
30.515 0.0732038
30.55 0.0674697
30.585 0.0753428
30.62 0.0615429
30.655 0.0296327
30.69 0.0196679
30.725 0.0300346
30.76 0.0162181
30.795 0.0435596
30.83 0.0470883
30.865 0.0311349
30.9 0.0693051
30.935 0.0804299
30.97 0.0975382
31.005 0.109928
31.04 0.122861
31.075 0.187187
31.11 0.234926
31.145 0.318745
31.18 0.472484
31.215 0.75932
31.25 1.47894
31.285 2.88579
31.32 6.02415
31.355 11.0867
31.39 18.5863
31.425 22.6043
31.46 21.7284
31.495 15.3674
31.53 8.88967
31.565 3.83182
31.6 1.53085
31.635 0.638896
31.67 0.306
31.705 0.249005
31.74 0.18484
31.775 0.188807
31.81 0.217472
31.845 0.204214
31.88 0.164245
31.915 0.106852
31.95 0.0696953
31.985 0.0592467
32.02 0.0205904
32.055 0.032454
32.09 0.0118589
32.125 0.00810566
32.16 0.000754586
32.195 -0.00562769
32.23 0.0107174
32.265 0.00398034
32.3 -0.00950705
32.335 -0.0156906
32.37 -0.0179518
32.405 -0.0038806
32.44 0.00958122
32.475 -0.00382836
32.51 -0.0131387
32.545 -0.0139118
32.58 -0.00103158
32.615 -0.0066128
32.65 -0.0114353
32.685 0.00159901
32.72 0.00889292
32.755 0.0113227
32.79 0.0137465
32.825 -0.017472
32.86 0.0107865
32.895 0.0105334
32.93 0.0159801
32.965 0.0252222
33 0.0245856
33.035 0.019401
33.07 0.0224169
33.105 0.0170455
33.14 0.0224545
33.175 0.00576178
33.21 -0.0119906
33.245 0.0225038
33.28 0.0181635
33.315 0.00398957
33.35 -0.00369386
33.385 -0.0140472
33.42 -0.0174796
33.455 2.67056e-06
33.49 0.00190307
33.525 0.00416332
33.56 0.0259875
33.595 0.00183564
33.63 0.0281906
33.665 0.0551873
33.7 0.0606157
33.735 0.117029
33.77 0.177294
33.805 0.247173
33.84 0.317904
33.875 0.357042
33.91 0.340879
33.945 0.327996
33.98 0.281674
34.015 0.249595
34.05 0.194213
34.085 0.171001
34.12 0.124378
34.155 0.0995624
34.19 0.0948957
34.225 0.107459
34.26 0.0958639
34.295 0.136719
34.33 0.159556
34.365 0.223007
34.4 0.362955
34.435 0.522152
34.47 0.799687
34.505 1.06374
34.54 1.24858
34.575 1.33383
34.61 1.16124
34.645 0.902325
34.68 0.668272
34.715 0.432761
34.75 0.276928
34.785 0.179864
34.82 0.0963063
34.855 0.0906292
34.89 0.0748765
34.925 0.0608987
34.96 0.0744243
34.995 0.0262729
35.03 0.0410324
35.065 0.0221413
35.1 0.0449217
35.135 0.0456262
35.17 0.0651148
35.205 0.0592166
35.24 0.0624445
35.275 0.0599079
35.31 0.0245927
35.345 0.0104233
35.38 0.0225248
35.415 -0.0026256
35.45 -0.00297038
35.485 0.00474415
35.52 0.00278753
35.555 -0.0093152
35.59 -0.00544304
35.625 -0.00873267
35.66 -0.00395672
35.695 -0.0100357
35.73 -0.0061452
35.765 -0.0143504
35.8 0.00378841
35.835 -0.00518111
35.87 -0.000928783
35.905 -0.00326641
35.94 0.0135654
35.975 0.00424511
36.01 0.00559775
36.045 0.0280159
36.08 0.0366005
36.115 0.0377927
36.15 0.0552444
36.185 0.0546639
36.22 0.067465
36.255 0.0489684
36.29 0.0592746
36.325 0.0411665
36.36 0.026306
36.395 0.0178726
36.43 0.0173565
36.465 -0.00616535
36.5 -0.00410565
36.535 0.00558114
36.57 -0.0212908
36.605 -0.00515218
36.64 -0.0129255
36.675 -0.0146571
36.71 -0.0114687
36.745 -0.0170652
36.78 -0.00968824
36.815 -0.0169554
36.85 -0.013787
36.885 -0.0215981
36.92 -0.0116153
36.955 -0.0119089
36.99 -0.0046794
37.025 -0.0074322
37.06 -0.0148001
37.095 -0.0216392
37.13 -0.0122869
37.165 -0.0172026
37.2 0.00370434
37.235 0.000995576
37.27 0.00851882
37.305 0.0252301
37.34 0.0436613
37.375 0.0788208
37.41 0.118632
37.445 0.132269
37.48 0.169913
37.515 0.137985
37.55 0.15642
37.585 0.140585
37.62 0.145943
37.655 0.158648
37.69 0.221143
37.725 0.328857
37.76 0.617458
37.795 1.24702
37.83 2.33884
37.865 4.13367
37.9 6.56749
37.935 8.78973
37.97 9.98014
38.005 8.72453
38.04 7.04815
38.075 4.42378
38.11 2.5612
38.145 1.31399
38.18 0.634366
38.215 0.355064
38.25 0.199734
38.285 0.149714
38.32 0.129433
38.355 0.0944772
38.39 0.0717878
38.425 0.0715913
38.46 0.0174487
38.495 0.018659
38.53 0.00152258
38.565 -0.00145049
38.6 0.00780041
38.635 0.00013126
38.67 -0.00945957
38.705 -0.0140052
38.74 -0.0197894
38.775 -0.00562073
38.81 -0.0204506
38.845 -0.0031977
38.88 -0.0211777
38.915 -0.01125
38.95 -0.0113183
38.985 -0.0210718
39.02 -0.00092199
39.055 -0.0124708
39.09 -0.00551574
39.125 -0.00719241
39.16 0.00357759
39.195 -0.0136778
39.23 -0.017403
39.265 -0.016152
39.3 0.00406264
39.335 0.000298174
39.37 -0.00111638
39.405 -0.0118599
39.44 -0.00285684
39.475 -0.0118445
39.51 0.0112319
39.545 -0.00485736
39.58 0.0204572
39.615 0.00864726
39.65 0.00652393
39.685 0.0226597
39.72 0.0512887
39.755 0.0724078
39.79 0.0994998
39.825 0.182955
39.86 0.293446
39.895 0.405788
39.93 0.529503
39.965 0.620384
40 0.632372
40.035 0.609704
40.07 0.511031
40.105 0.372034
40.14 0.265781
40.175 0.16563
40.21 0.102898
40.245 0.0481934
40.28 0.0188863
40.315 0.0193434
40.35 0.0147461
40.385 0.0098141
40.42 0.00366898
40.455 -0.0055518
40.49 0.00264672
40.525 -0.0136258
40.56 -0.00501878
40.595 -0.0140067
40.63 0.0182537
40.665 -0.0107375
40.7 -0.0125104
40.735 0.00821765
40.77 0.0160032
40.805 0.0464737
40.84 0.0516862
40.875 0.0328815
40.91 0.0306179
40.945 0.0450762
40.98 0.00954297
41.015 0.00435022
41.05 -0.00543465
41.085 -0.00110351
41.12 0.0110335
41.155 -0.00932858
41.19 -0.0109521
41.225 -0.00250207
41.26 -0.0143067
41.295 -0.00433822
41.33 -0.00483953
41.365 -0.00828555
41.4 0.000601571
41.435 8.23835e-05
41.47 -0.00394
41.505 0.00245512
41.54 -0.0145908
41.575 -0.00579433
41.61 -0.011887
41.645 -0.0160836
41.68 -0.00263484
41.715 -0.00785557
41.75 0.0108957
41.785 -0.00333498
41.82 -0.00365377
41.855 0.0142471
41.89 0.0183362
41.925 0.027319
41.96 0.0148829
41.995 0.0298149
42.03 0.0133697
42.065 0.0165577
42.1 0.00723237
42.135 -0.00633393
42.17 -0.000488169
42.205 -0.0126998
42.24 -0.00339941
42.275 -0.00645872
42.31 -0.00317662
42.345 -0.000549561
42.38 -0.00355281
42.415 -0.000866009
42.45 0.0116855
42.485 -0.00510119
42.52 0.000584199
42.555 -0.00545743
42.59 0.0224804
42.625 0.0155221
42.66 0.0121065
42.695 0.00575914
42.73 0.00294826
42.765 -0.0110421
42.8 -0.00503679
42.835 0.0075559
42.87 -0.00344021
42.905 0.0255354
42.94 -0.0139013
42.975 -0.00920562
43.01 -0.00242137
43.045 0.00649816
43.08 -0.00456635
43.115 0.00411795
43.15 0.0285826
43.185 0.017244
43.22 0.0142168
43.255 0.0044854
43.29 0.00709899
43.325 0.000611024
43.36 0.00910432
43.395 3.67624e-05
43.43 -0.0160918
43.465 0.00832403
43.5 -0.00582315
43.535 0.00577012
43.57 0.00197374
43.605 0.00777736
43.64 0.00032787
43.675 -0.00616316
43.71 0.000775602
43.745 -0.00757555
43.78 0.015393
43.815 0.0116058
43.85 0.00265652
43.885 0.00731047
43.92 0.014483
43.955 0.0242607
43.99 0.0267206
44.025 0.0436439
44.06 0.042825
44.095 0.078337
44.13 0.0586407
44.165 0.0790996
44.2 0.0443413
44.235 0.0771946
44.27 0.0514393
44.305 0.0488823
44.34 0.0162195
44.375 0.0598902
44.41 0.108624
44.445 0.139447
44.48 0.21175
44.515 0.307157
44.55 0.48983
44.585 0.677049
44.62 0.890978
44.655 0.82929
44.69 0.743228
44.725 0.513718
44.76 0.334569
44.795 0.16653
44.83 0.113501
44.865 0.0937611
44.9 0.146335
44.935 0.234018
44.97 0.383692
45.005 0.631373
45.04 1.0073
45.075 1.41944
45.11 1.82408
45.145 2.06591
45.18 2.05673
45.215 1.85229
45.25 1.46999
45.285 1.08784
45.32 0.776589
45.355 0.464009
45.39 0.252008
45.425 0.142169
45.46 0.0813997
45.495 0.0339888
45.53 0.00971124
45.565 0.0170485
45.6 0.0263573
45.635 0.0151467
45.67 0.00639312
45.705 -0.0157806
45.74 0.0328319
45.775 0.0498211
45.81 0.0697
45.845 0.098831
45.88 0.106511
45.915 0.148231
45.95 0.210803
45.985 0.318559
46.02 0.483017
46.055 0.690705
46.09 0.882475
46.125 1.15122
46.16 1.39636
46.195 1.55943
46.23 1.59179
46.265 1.44658
46.3 1.18569
46.335 0.915452
46.37 0.656165
46.405 0.447537
46.44 0.265954
46.475 0.182712
46.51 0.0988442
46.545 0.0662196
46.58 0.0482952
46.615 0.0173265
46.65 0.0342923
46.685 0.0165076
46.72 0.0362912
46.755 0.0202635
46.79 0.00746796
46.825 -0.0147196
46.86 -0.00922386
46.895 -0.00607598
46.93 -0.0118667
46.965 0.000311276
47 -0.0135569
47.035 0.00926774
47.07 -0.00940951
47.105 -0.0167003
47.14 0.000593966
47.175 -0.0127512
47.21 0.00137503
47.245 -0.00286008
47.28 0.00380881
47.315 -0.00258958
47.35 0.00495076
47.385 0.0173915
47.42 0.00502485
47.455 -0.00669561
47.49 -0.00196212
47.525 -6.45242e-05
47.56 -0.0190778
47.595 -0.0118744
47.63 -0.00742529
47.665 0.0120169
47.7 -0.00984485
47.735 -0.00976454
47.77 -0.00404582
47.805 -0.000844402
47.84 -0.00267623
47.875 0.0040601
47.91 -0.0011214
47.945 -0.00228318
47.98 -0.00299889
48.015 0.00597298
48.05 -0.0126733
48.085 0.00134458
48.12 -0.0150932
48.155 -0.00183736
48.19 0.00403398
48.225 0.00432929
48.26 -0.00488085
48.295 -0.0141434
48.33 -0.00403141
48.365 -0.00227249
48.4 -0.00694157
48.435 -0.0182996
48.47 -0.0126471
48.505 0.00782885
48.54 0.0336002
48.575 0.0511155
48.61 0.0799289
48.645 0.133753
48.68 0.174796
48.715 0.198993
48.75 0.236255
48.785 0.265241
48.82 0.245944
48.855 0.208802
48.89 0.155442
48.925 0.0943217
48.96 0.0623202
48.995 0.0244582
49.03 0.00458918
49.065 0.00660668
49.1 -0.0129837
49.135 -0.00325049
49.17 -0.0174555
49.205 0.00541843
49.24 0.00956798
49.275 0.0423518
49.31 0.108832
49.345 0.16724
49.38 0.247039
49.415 0.292481
49.45 0.273267
49.485 0.226502
49.52 0.20474
49.555 0.167587
49.59 0.151979
49.625 0.14812
49.66 0.138608
49.695 0.103239
49.73 0.0735168
49.765 0.0390643
49.8 0.0155793
49.835 0.00722906
49.87 0.00504864
49.905 -0.000475892
49.94 -0.013391
49.975 0.00214438
50.01 -0.00445124
50.045 -0.00363146
50.08 -0.00604699
50.115 -0.00396148
50.15 -0.0109556
50.185 -0.00384692
50.22 -0.0108566
50.255 -0.00577991
50.29 -0.018228
50.325 -0.0123932
50.36 -0.0142811
50.395 -0.0123843
50.43 0.00506913
50.465 -0.00575317
50.5 -0.00300438
50.535 -0.00157108
50.57 -0.00997666
50.605 -0.00180743
50.64 -0.00391952
50.675 -0.00646547
50.71 0.00190371
50.745 -0.00815252
50.78 -0.000972973
50.815 -0.0144956
50.85 -0.0095352
50.885 -0.00363608
50.92 -0.0173995
50.955 -0.0109229
50.99 -0.00599981
51.025 -0.0126697
51.06 0.0049292
51.095 -0.0108191
51.13 -0.00818802
51.165 -0.00396991
51.2 0.00899784
51.235 0.0033616
51.27 0.0146745
51.305 0.0186381
51.34 0.0148402
51.375 0.0287176
51.41 0.0345367
51.445 0.0279047
51.48 0.0207613
51.515 0.0172084
51.55 0.022265
51.585 0.0204008
51.62 0.00981387
51.655 0.00920939
51.69 0.00578317
51.725 0.0123367
51.76 -0.00717886
51.795 -0.0115555
51.83 -0.00750866
51.865 -0.000450108
51.9 -0.00639672
51.935 0.00705564
51.97 -0.0100485
52.005 -0.00587966
52.04 -0.0131174
52.075 -0.00209332
52.11 -0.00384569
52.145 -0.0038068
52.18 -0.0141475
52.215 -0.00795099
52.25 0.00176405
52.285 -0.00881659
52.32 -0.00396183
52.355 -0.00440291
52.39 -0.00162471
52.425 -0.000478106
52.46 0.00834406
52.495 0.010298
52.53 0.0206013
52.565 0.019424
52.6 0.0350303
52.635 0.0479322
52.67 0.0667408
52.705 0.115283
52.74 0.137145
52.775 0.173349
52.81 0.216165
52.845 0.271789
52.88 0.343165
52.915 0.395081
52.95 0.45817
52.985 0.478101
53.02 0.466315
53.055 0.420128
53.09 0.360558
53.125 0.282614
53.16 0.206323
53.195 0.150318
53.23 0.0972938
53.265 0.0734284
53.3 0.0459242
53.335 0.0364905
53.37 0.0120989
53.405 0.00828691
53.44 0.0109174
53.475 0.00668074
53.51 0.0210097
53.545 0.02508
53.58 0.03386
53.615 0.036206
53.65 0.030161
53.685 0.0272971
53.72 0.0261444
53.755 0.0165532
53.79 6.35941e-05
53.825 0.000625588
53.86 -0.00487584
53.895 -0.0101332
53.93 -0.00248889
53.965 -0.0061226
54 -0.0038456
54.035 -0.0151054
54.07 -0.00152703
54.105 -0.0123159
54.14 0.0011572
54.175 -0.00454984
54.21 -0.00902324
54.245 0.00306076
54.28 -0.00538743
54.315 0.0135585
54.35 0.0163444
54.385 0.018315
54.42 0.0374213
54.455 0.0379237
54.49 0.0334754
54.525 0.0709981
54.56 0.0502256
54.595 0.0521671
54.63 0.054134
54.665 0.0265258
54.7 0.0154817
54.735 0.015801
54.77 0.00473661
54.805 0.00441165
54.84 0.0068274
54.875 0.00356024
54.91 0.0120681
54.945 0.00698944
54.98 -0.00532434
55.015 -0.00467421
55.05 -0.00938175
55.085 0.00251453
55.12 -0.0063995
55.155 0.0066954
55.19 -0.0100608
55.225 -0.000349553
55.26 -0.0130743
55.295 0.00101939
55.33 -0.00968933
55.365 -0.00594685
55.4 -0.0128909
55.435 -0.010619
55.47 -0.00507302
55.505 0.00065613
55.54 -0.0124336
55.575 -0.00479226
55.61 -0.00653763
55.645 -0.0170985
55.68 -0.00565607
55.715 0.00432314
55.75 0.0122908
55.785 0.00900225
55.82 0.00780993
55.855 0.01144
55.89 0.0227135
55.925 0.0298805
55.96 0.0494333
55.995 0.0313321
56.03 0.059539
56.065 0.0590559
56.1 0.0692722
56.135 0.0861248
56.17 0.109897
56.205 0.113544
56.24 0.134026
56.275 0.117478
56.31 0.106192
56.345 0.0992256
56.38 0.0855677
56.415 0.0519184
56.45 0.0336838
56.485 0.0289563
56.52 0.0219392
56.555 0.00435529
56.59 -0.00380623
56.625 -0.0152202
56.66 -0.0069054
56.695 -0.0161493
56.73 -0.00682968
56.765 -0.0058548
56.8 0.00133722
56.835 -0.014525
56.87 -0.00935031
56.905 -0.0036791
56.94 0.00111645
56.975 3.52663e-05
57.01 -0.0157537
57.045 -0.0126822
57.08 -0.00128234
57.115 -0.00305372
57.15 0.0137578
57.185 0.0435566
57.22 0.0411506
57.255 0.0664666
57.29 0.054436
57.325 0.044943
57.36 0.020945
57.395 0.0202723
57.43 0.0199508
57.465 -0.00411482
57.5 -0.0163802
57.535 -0.0149773
57.57 -0.0018005
57.605 -0.015516
57.64 0.00503085
57.675 -0.0108564
57.71 -0.0130163
57.745 0.00853947
57.78 0.0113047
57.815 -0.0166129
57.85 0.0036527
57.885 0.00167071
57.92 -0.006835
57.955 -0.00367444
57.99 -0.00975136
58.025 0.00995787
58.06 -0.0128073
58.095 -0.00518737
58.13 -0.00188478
58.165 0.00042035
58.2 0.00489792
58.235 0.0283508
58.27 0.0020688
58.305 0.0137632
58.34 0.0234633
58.375 0.0275628
58.41 0.0327798
58.445 0.02292
58.48 0.02226
58.515 0.00549422
58.55 0.00537711
58.585 0.00465118
58.62 -0.0129277
58.655 0.00756224
58.69 0.0238029
58.725 0.0164144
58.76 0.0302714
58.795 0.0483815
58.83 0.0751851
58.865 0.0725525
58.9 0.0954418
58.935 0.100262
58.97 0.127653
59.005 0.126064
59.04 0.145875
59.075 0.147965
59.11 0.128747
59.145 0.10653
59.18 0.0827579
59.215 0.071209
59.25 0.051676
59.285 0.0384082
59.32 0.01649
59.355 0.01019
59.39 0.00999583
59.425 0.00510317
59.46 0.00449355
59.495 -0.0131096
59.53 -0.0131212
59.565 -0.00752339
59.6 -0.00670311
59.635 0.0116934
59.67 -0.00689936
59.705 -0.00649441
59.74 0.00134323
59.775 -0.00482191
59.81 -0.000266265
59.845 -0.00143955
59.88 0.00587239
59.915 0.00975162
59.95 0.0134579
59.985 0.0284449
60.02 0.0162011
60.055 0.0186818
60.09 0.0350918
60.125 0.0349034
60.16 0.0418152
60.195 0.0301092
60.23 0.0342202
60.265 0.0261099
60.3 0.0377853
60.335 0.0431662
60.37 0.0444932
60.405 0.0404171
60.44 0.0348522
60.475 0.0441525
60.51 0.0421496
60.545 0.0392545
60.58 0.0404578
60.615 0.0142442
60.65 0.0136795
60.685 -0.00272342
60.72 -0.00500942
60.755 -0.00344525
60.79 -0.0064641
60.825 8.10716e-05
60.86 -0.00487982
60.895 0.00878609
60.93 -0.00178947
60.965 -0.0122673
61 0.00606915
61.035 0.00156327
61.07 0.0136442
61.105 0.0293484
61.14 0.0191604
61.175 0.0260269
61.21 0.0507245
61.245 0.100841
61.28 0.164981
61.315 0.232766
61.35 0.351859
61.385 0.488585
61.42 0.625009
61.455 0.827113
61.49 1.01016
61.525 1.19045
61.56 1.30754
61.595 1.40769
61.63 1.38741
61.665 1.31272
61.7 1.11174
61.735 0.931174
61.77 0.740617
61.805 0.566117
61.84 0.398134
61.875 0.253051
61.91 0.13701
61.945 0.0729518
61.98 0.0458662
62.015 0.0259385
62.05 0.026236
62.085 0.0048862
62.12 0.0163835
62.155 0.0217397
62.19 0.0137553
62.225 0.0134644
62.26 0.00245183
62.295 -0.00687203
62.33 -0.00301075
62.365 -0.00404289
62.4 -0.0114013
62.435 0.0085098
62.47 0.00456929
62.505 0.0187766
62.54 0.00614621
62.575 0.00578524
62.61 0.0297855
62.645 0.0251324
62.68 0.0396913
62.715 0.051238
62.75 0.0666507
62.785 0.0715744
62.82 0.0589904
62.855 0.0565103
62.89 0.0508132
62.925 0.0453121
62.96 0.0394615
62.995 0.0329998
63.03 0.0303791
63.065 0.0234812
63.1 0.0238677
63.135 0.0101047
63.17 0.0245622
63.205 0.0259371
63.24 0.0183525
63.275 0.0244912
63.31 0.016638
63.345 0.00573593
63.38 0.017299
63.415 0.0259692
63.45 0.0230219
63.485 0.0341569
63.52 0.0257823
63.555 0.0206073
63.59 0.00322801
63.625 0.000581816
63.66 -0.000758281
63.695 0.00059439
63.73 -0.00324127
63.765 -0.00262683
63.8 -0.000502667
63.835 -0.000500872
63.87 -0.0120137
63.905 -0.0043925
63.94 0.00547854
63.975 -0.000873312
64.01 0.0153765
64.045 -0.0131591
64.08 -0.0127287
64.115 -0.00663016
64.15 -0.00579041
64.185 4.37345e-05
64.22 -0.0016895
64.255 -0.00458461
64.29 0.00166055
64.325 -0.0143714
64.36 -0.00930652
64.395 -0.00327057
64.43 0.000644549
64.465 -0.00483098
64.5 0.00771242
64.535 -0.00149201
64.57 -0.00272347
64.605 0.000294565
64.64 -0.002092
64.675 0.00850428
64.71 0.0132199
64.745 0.0211147
64.78 0.0141017
64.815 0.00919978
64.85 0.00545094
64.885 0.0154152
64.92 0.0131446
64.955 0.00172966
64.99 0.00497575
65.025 -0.00562144
65.06 0.00758355
65.095 -0.00201161
65.13 -0.0151401
65.165 0.00541643
65.2 -0.00875319
65.235 0.00416049
65.27 0.0111647
65.305 0.00359884
65.34 0.000125681
65.375 0.0101505
65.41 -0.00164578
65.445 -0.00119854
65.48 0.00203458
65.515 0.00545301
65.55 -0.0108001
65.585 -0.00330254
65.62 -0.00700642
65.635 -0.0165655