File: data/xrd/xy/2019-05-23TO2_12_25.720560+00_00_LBL_G1.xy
'Id: "" Comment: "Integrate frame 06062019_neo_Pentyl_04_002.gfrmwith cursor Wedge Cursor #1" Operator: "UC Berkeley" Anode: "Co" Scantype: "TwoTheta" TimePerStep: "600"
14.125 -0.0254035
14.165 -0.0245212
14.205 0.022572
14.245 0.00665475
14.285 0.00695016
14.325 0.0311293
14.365 0.0215823
14.405 0.00700744
14.445 0.0160579
14.485 -2.24838e-05
14.525 -0.00872506
14.565 0.0402066
14.605 0.0474181
14.645 0.0327468
14.685 0.0630443
14.725 0.0906861
14.765 0.0800739
14.805 0.0842148
14.845 0.0905896
14.885 0.0606726
14.925 0.0598536
14.965 0.0737578
15.005 0.0309062
15.045 0.0306237
15.085 0.0284656
15.125 0.0246322
15.165 0.0555478
15.205 0.031576
15.245 0.0314156
15.285 0.00286877
15.325 0.0378483
15.365 0.020019
15.405 0.0212476
15.445 0.0652859
15.485 0.0434077
15.525 0.0388451
15.565 0.0461271
15.605 0.0368441
15.645 0.0379904
15.685 0.015457
15.725 0.0483018
15.765 0.0316144
15.805 0.0139498
15.845 0.0225335
15.885 0.0381015
15.925 0.0456781
15.965 0.0122069
16.005 0.0216689
16.045 0.0174438
16.085 0.0464045
16.125 -8.88543e-05
16.165 0.0354526
16.205 -0.0132875
16.245 0.0349341
16.285 -0.0047535
16.325 0.0110041
16.365 0.0150935
16.405 0.0428457
16.445 0.0430554
16.485 0.0429161
16.525 0.00237123
16.565 0.0109404
16.605 0.0074131
16.645 0.0479033
16.685 0.0393714
16.725 0.0447771
16.765 0.0250001
16.805 0.0252517
16.845 0.0158805
16.885 0.00670284
16.925 0.0462825
16.965 0.0119285
17.005 0.0169028
17.045 0.0276903
17.085 0.00766457
17.125 0.023019
17.165 0.00524987
17.205 0.0221545
17.245 -0.00633489
17.285 0.0310881
17.325 0.014855
17.365 0.0325413
17.405 0.0192801
17.445 0.0283785
17.485 -0.00387243
17.525 0.0225858
17.565 0.0379528
17.605 0.0334229
17.645 0.00983629
17.685 0.0239911
17.725 0.00525725
17.765 0.0538433
17.805 0.0557167
17.845 0.019823
17.885 0.012199
17.925 -0.0149751
17.965 0.0282378
18.005 -0.00379434
18.045 0.0141753
18.085 0.0250726
18.125 0.0204251
18.165 0.0538619
18.205 0.0131997
18.245 0.0374967
18.285 -0.00275967
18.325 0.0198701
18.365 0.0253209
18.405 0.0457119
18.445 0.0148728
18.485 0.021436
18.525 -0.00334093
18.565 0.0515294
18.605 0.0423036
18.645 0.00549472
18.685 0.0133142
18.725 0.0598808
18.765 0.0440386
18.805 -0.0160073
18.845 0.0101383
18.885 0.052729
18.925 0.00549082
18.965 0.0132932
19.005 0.0185283
19.045 0.0208679
19.085 0.0217595
19.125 0.0368084
19.165 0.0148714
19.205 0.0165145
19.245 0.00430516
19.285 0.0247987
19.325 0.0266167
19.365 0.0236122
19.405 0.0288594
19.445 -0.0144325
19.485 0.00881809
19.525 0.0138603
19.565 0.0110973
19.605 0.00196272
19.645 0.0162896
19.685 0.0271955
19.725 0.0497494
19.765 0.013906
19.805 0.0400752
19.845 0.0134064
19.885 -0.00956034
19.925 0.00191645
19.965 0.0358197
20.005 -0.00779956
20.045 0.00412951
20.085 -0.0014803
20.125 0.0134995
20.165 0.0189879
20.205 -0.00573393
20.245 0.00209089
20.285 0.000145878
20.325 0.0161538
20.365 0.0368578
20.405 0.0369335
20.445 0.0200549
20.485 0.0260052
20.525 0.0221409
20.565 0.0464331
20.605 -0.0189614
20.645 -0.00879649
20.685 0.00793127
20.725 0.0237825
20.765 0.0228456
20.805 0.0194167
20.845 0.0463434
20.885 0.0300821
20.925 -0.000773881
20.965 0.0318015
21.005 -0.000322809
21.045 0.022844
21.085 0.0249785
21.125 0.0286571
21.165 0.0206275
21.205 -7.98337e-05
21.245 0.0137833
21.285 0.0183102
21.325 0.0266601
21.365 0.0272964
21.405 -0.017432
21.445 0.00224296
21.485 -0.00424646
21.525 -0.00127841
21.565 -0.000305172
21.605 0.0291094
21.645 0.0438022
21.685 0.0277079
21.725 0.059995
21.765 0.0434542
21.805 0.0333794
21.845 0.0226278
21.885 0.0198303
21.925 0.0681867
21.965 0.0212912
22.005 0.0385935
22.045 0.0385888
22.085 0.0287232
22.125 0.0388978
22.165 0.0730112
22.205 0.0260751
22.245 0.0636474
22.285 0.0311056
22.325 0.0432944
22.365 7.52758e-05
22.405 0.0206682
22.445 0.0367943
22.485 0.0719579
22.525 0.0276765
22.565 0.00842577
22.605 0.0403123
22.645 0.0201815
22.685 0.0613204
22.725 0.027423
22.765 0.0476149
22.805 0.0137298
22.845 0.0355294
22.885 0.00583761
22.925 0.00451186
22.965 0.0243703
23.005 0.00388696
23.045 0.0467904
23.085 0.0228336
23.125 0.0144016
23.165 0.00512649
23.205 0.0370446
23.245 0.0322459
23.285 0.0159027
23.325 0.0157072
23.365 0.0358183
23.405 0.00462998
23.445 0.000942248
23.485 0.0128597
23.525 0.0089481
23.565 0.0279886
23.605 -0.0133568
23.645 0.0273525
23.685 0.0229351
23.725 0.0286296
23.765 0.00448368
23.805 0.0118158
23.845 0.0115731
23.885 0.00463018
23.925 0.00353015
23.965 0.00236659
24.005 0.0292685
24.045 0.0290664
24.085 0.0229481
24.125 0.0255138
24.165 0.0042204
24.205 0.0160042
24.245 0.0468257
24.285 0.0313631
24.325 0.00783223
24.365 0.026942
24.405 -0.0134701
24.445 0.0569468
24.485 0.0305886
24.525 0.0139196
24.565 0.018522
24.605 0.024789
24.645 0.0435578
24.685 0.0263759
24.725 0.0216378
24.765 0.00494013
24.805 0.0209445
24.845 0.0231683
24.885 0.00264017
24.925 0.0378282
24.965 0.00887128
25.005 0.0258872
25.045 0.0164145
25.085 0.00949387
25.125 0.00279429
25.165 0.0488588
25.205 0.0120023
25.245 0.0318473
25.285 0.0261399
25.325 -0.00338201
25.365 0.032604
25.405 0.0159136
25.445 0.0380564
25.485 0.0176478
25.525 0.0132155
25.565 0.0100176
25.605 0.0126494
25.645 0.00798548
25.685 -0.0258106
25.725 0.0336043
25.765 0.0165106
25.805 -0.00174832
25.845 0.0572098
25.885 0.0185883
25.925 0.00603051
25.965 0.0226322
26.005 0.0220346
26.045 -0.00464106
26.085 0.0235845
26.125 0.0363186
26.165 0.0447534
26.205 0.0619738
26.245 0.0802968
26.285 0.0653488
26.325 0.0588346
26.365 0.0377095
26.405 0.0440419
26.445 0.0577526
26.485 0.0355361
26.525 0.0245736
26.565 0.0582932
26.605 0.0323539
26.645 0.0125552
26.685 0.0389505
26.725 6.77582e-05
26.765 0.0459312
26.805 0.040684
26.845 0.0446149
26.885 0.0143194
26.925 0.0330599
26.965 0.029983
27.005 0.0298041
27.045 0.0394979
27.085 0.00611299
27.125 0.0264245
27.165 0.0540518
27.205 0.096581
27.245 0.0381903
27.285 0.0626536
27.325 0.0779427
27.365 0.0388018
27.405 0.0119025
27.445 0.0545882
27.485 0.0251127
27.525 0.0227707
27.565 0.021854
27.605 0.00759178
27.645 0.0145896
27.685 0.0202292
27.725 0.00189011
27.765 0.0102742
27.805 0.025855
27.845 0.0164613
27.885 0.0236144
27.925 0.0254507
27.965 0.0226319
28.005 0.0162467
28.045 0.0143055
28.085 0.0307157
28.125 -0.0117624
28.165 -0.000659246
28.205 0.0194025
28.245 -0.00342244
28.285 0.0338062
28.325 -0.017747
28.365 -0.00425816
28.405 -0.0159677
28.445 0.0124697
28.485 0.0103708
28.525 -0.000685315
28.565 0.0324462
28.605 -0.00107452
28.645 -0.00679663
28.685 0.0293569
28.725 0.00131683
28.765 0.0178805
28.805 0.0163595
28.845 0.0169464
28.885 0.00685741
28.925 0.00397389
28.965 0.0263955
29.005 0.0206674
29.045 0.0320125
29.085 -0.00658676
29.125 0.0297898
29.165 0.0160731
29.205 0.000426626
29.245 0.0272152
29.285 0.0241346
29.325 0.0276798
29.365 0.0232738
29.405 0.025974
29.445 0.0247472
29.485 0.045707
29.525 0.0261467
29.565 0.0686827
29.605 0.0894852
29.645 0.130537
29.685 0.192192
29.725 0.185857
29.765 0.220582
29.805 0.176795
29.845 0.146432
29.885 0.106924
29.925 0.137168
29.965 0.180963
30.005 0.218453
30.045 0.407922
30.085 0.724956
30.125 1.18444
30.165 1.90482
30.205 2.48068
30.245 2.68084
30.285 2.49982
30.325 1.88408
30.365 1.25218
30.405 0.7502
30.445 0.423613
30.485 0.232616
30.525 0.126458
30.565 0.117288
30.605 0.0739827
30.645 0.050786
30.685 0.0688433
30.725 0.0294141
30.765 -0.00596071
30.805 0.0173191
30.845 0.0246005
30.885 0.000527368
30.925 0.0316297
30.965 -0.00320222
31.005 -0.0045639
31.045 0.0223826
31.085 0.0108642
31.125 -0.00646247
31.165 -0.00388076
31.205 0.00745303
31.245 0.0181289
31.285 0.00491813
31.325 -0.00427499
31.365 0.0237277
31.405 -0.0013757
31.445 -0.0100188
31.485 0.0216857
31.525 0.00449109
31.565 -0.00373983
31.605 0.0137168
31.645 -0.00204491
31.685 0.00337588
31.725 -0.000121958
31.765 0.000765777
31.805 0.00231857
31.845 0.0104999
31.885 -0.0083044
31.925 0.0150556
31.965 -0.000377957
32.005 -0.000365529
32.045 0.0177582
32.085 0.014477
32.125 0.0286575
32.165 0.00691733
32.205 -0.0169925
32.245 -0.0221942
32.285 -0.022356
32.325 -0.000630462
32.365 -0.00200253
32.405 0.00131005
32.445 0.0216625
32.485 -0.0032809
32.525 -0.00852527
32.565 0.000887103
32.605 0.0114162
32.645 -0.00468344
32.685 -0.0160119
32.725 0.00530579
32.765 -0.00359388
32.805 -0.0242102
32.845 -0.00280406
32.885 0.00197865
32.925 0.019891
32.965 0.0215913
33.005 0.0288791
33.045 0.00156997
33.085 0.037403
33.125 0.0267726
33.165 0.0207736
33.205 0.0261054
33.245 0.0338559
33.285 0.0318463
33.325 0.0234625
33.365 0.0243551
33.405 0.00435524
33.445 0.0137815
33.485 0.0209713
33.525 0.034035
33.565 0.0332971
33.605 0.0114339
33.645 0.00203242
33.685 0.0213173
33.725 0.0149287
33.765 -0.00824586
33.805 0.0213526
33.845 0.0168229
33.885 5.04628e-05
33.925 0.0144094
33.965 0.0116125
34.005 -0.0070505
34.045 -0.00145879
34.085 -0.00181344
34.125 0.0114333
34.165 0.0238471
34.205 0.010214
34.245 0.0223948
34.285 0.0195016
34.325 0.0250656
34.365 0.0422573
34.405 0.0543639
34.445 0.104
34.485 0.116645
34.525 0.162522
34.565 0.198905
34.605 0.223183
34.645 0.170651
34.685 0.15264
34.725 0.138773
34.765 0.0838558
34.805 0.0576713
34.845 0.0313231
34.885 0.0243491
34.925 0.0368254
34.965 0.0290568
35.005 0.0171267
35.045 0.00127527
35.085 0.00262652
35.125 0.0257824
35.165 -0.00932497
35.205 -0.00105358
35.245 -0.00754461
35.285 0.00207848
35.325 -0.00959809
35.365 -0.00183346
35.405 0.0137436
35.445 0.0129871
35.485 0.0135267
35.525 0.0112662
35.565 -0.0116089
35.605 0.00336254
35.645 0.0148409
35.685 -0.000907056
35.725 0.0103259
35.765 0.0245268
35.805 0.0409714
35.845 0.017295
35.885 0.0175462
35.925 0.0187419
35.965 0.0296963
36.005 0.0232286
36.045 0.0277571
36.085 0.0210371
36.125 0.0456297
36.165 0.0325274
36.205 0.0231324
36.245 0.0479325
36.285 0.0390531
36.325 0.0305524
36.365 0.0302686
36.405 0.016063
36.445 0.0156784
36.485 0.0173005
36.525 -0.00112958
36.565 0.00334171
36.605 -0.011205
36.645 -0.0153854
36.685 0.00362235
36.725 -0.00318426
36.765 0.00149377
36.805 -0.0227979
36.845 0.000479787
36.885 -0.00248747
36.925 -0.00919065
36.965 0.00350894
37.005 -0.00143442
37.045 -0.0137625
37.085 -0.00066302
37.125 -0.00791068
37.165 -0.0133436
37.205 0.004418
37.245 -0.00909576
37.285 -0.0110139
37.325 0.00929451
37.365 -0.00169117
37.405 -0.0169668
37.445 -0.00577339
37.485 0.00908365
37.525 -0.0075663
37.565 -0.00737256
37.605 0.000141201
37.645 -0.0169859
37.685 -0.0104022
37.725 -0.0029114
37.765 -0.0125038
37.805 0.00411473
37.845 -0.00389791
37.885 -0.0105358
37.925 -0.0128216
37.965 -0.00246018
38.005 0.00111025
38.045 -0.0159858
38.085 -0.000580246
38.125 -0.0121086
38.165 0.00128403
38.205 -0.0195726
38.245 0.00536892
38.285 -0.0061483
38.325 -0.00673166
38.365 0.00734932
38.405 -0.0104655
38.445 -0.00641442
38.485 -0.012869
38.525 -0.00724791
38.565 0.0125994
38.605 -0.00800669
38.645 -0.00690419
38.685 -0.0133244
38.725 -0.0114679
38.765 0.00268096
38.805 0.00417152
38.845 0.00787633
38.885 -0.00486369
38.925 -0.00570685
38.965 -0.00741533
39.005 0.0060197
39.045 -0.00978701
39.085 -0.00818556
39.125 -0.0100715
39.165 -0.0106159
39.205 -0.0220661
39.245 0.0114166
39.285 -0.0135035
39.325 0.00744652
39.365 0.00153293
39.405 -0.00491898
39.445 0.015578
39.485 0.0250429
39.525 0.0175093
39.565 0.0505222
39.605 0.0489087
39.645 0.059511
39.685 0.0832619
39.725 0.119268
39.765 0.172751
39.805 0.236372
39.845 0.385096
39.885 0.548976
39.925 0.914542
39.965 1.40988
40.005 1.96503
40.045 2.46814
40.085 2.68636
40.125 2.52158
40.165 2.04587
40.205 1.441
40.245 0.939901
40.285 0.551953
40.325 0.347618
40.365 0.239656
40.405 0.159919
40.445 0.118912
40.485 0.0870244
40.525 0.0394565
40.565 0.0377047
40.605 0.0259291
40.645 0.0131493
40.685 0.00782429
40.725 0.00195697
40.765 0.00757078
40.805 9.61777e-05
40.845 -0.00302192
40.885 -0.0136941
40.925 0.0175871
40.965 -0.00369361
41.005 -0.0123012
41.045 0.00984493
41.085 -0.0122088
41.125 -0.0104504
41.165 0.00338874
41.205 -0.00915341
41.245 -0.00942474
41.285 -0.0120763
41.325 -6.18535e-06
41.365 0.000281764
41.405 -0.00609279
41.445 -0.00379574
41.485 -0.0109143
41.525 -0.0154909
41.565 -0.000377623
41.605 0.0118986
41.645 -0.00027735
41.685 -0.00739076
41.725 -0.00167869
41.765 -0.0138131
41.805 0.013015
41.845 -0.0211894
41.885 -0.00721595
41.925 -0.0121468
41.965 -0.00251579
42.005 0.0213167
42.045 -0.0179128
42.085 0.0199705
42.125 0.00217602
42.165 0.00495016
42.205 -0.0170774
42.245 0.00171313
42.285 -0.0100129
42.325 0.00597745
42.365 0.0113594
42.405 -0.00107606
42.445 0.00661379
42.485 0.00671502
42.525 -0.00203244
42.565 0.0019249
42.605 0.00442156
42.645 0.0197278
42.685 -0.00163545
42.725 0.00331502
42.765 -0.00426585
42.805 0.00752846
42.845 0.0144068
42.885 0.0222528
42.925 0.00700615
42.965 0.0218494
43.005 -0.0114006
43.045 0.00140928
43.085 0.00761699
43.125 0.0012034
43.165 -0.00284378
43.205 -0.0012972
43.245 -0.00441123
43.285 0.00901706
43.325 0.0209726
43.365 0.0168433
43.405 -0.00159558
43.445 0.00574101
43.485 -0.0142822
43.525 -0.00116436
43.565 -0.00747247
43.605 -0.00752178
43.645 0.0151862
43.685 0.0047742
43.725 0.022241
43.765 0.00460699
43.805 0.0047938
43.845 0.0250983
43.885 -0.000810577
43.925 0.00607214
43.965 0.0276868
44.005 0.0203344
44.045 0.0166242
44.085 0.0284026
44.125 0.0289358
44.165 0.0179111
44.205 0.0369493
44.245 0.0280031
44.285 0.0365555
44.325 0.0239204
44.365 0.0301779
44.405 0.028016
44.445 0.0310618
44.485 0.0421418
44.525 0.00714261
44.565 0.0286237
44.605 0.0201386
44.645 0.0213474
44.685 0.0354715
44.725 0.0420975
44.765 0.0493036
44.805 0.0348113
44.845 0.0467806
44.885 0.0848647
44.925 0.104392
44.965 0.147585
45.005 0.218446
45.045 0.344934
45.085 0.613315
45.125 0.993587
45.165 1.44032
45.205 1.80874
45.245 1.87478
45.285 1.74613
45.325 1.41211
45.365 1.00916
45.405 0.716631
45.445 0.409007
45.485 0.224576
45.525 0.142831
45.565 0.0902107
45.605 0.0896347
45.645 0.0282687
45.685 0.0263967
45.725 0.0438418
45.765 0.0307873
45.805 0.0604808
45.845 0.0435338
45.885 0.0493449
45.925 0.0563722
45.965 0.106687
46.005 0.127566
46.045 0.172286
46.085 0.260926
46.125 0.423918
46.165 0.672649
46.205 1.04167
46.245 1.43496
46.285 1.75271
46.325 1.73407
46.365 1.50175
46.405 1.18394
46.445 0.808002
46.485 0.520005
46.525 0.287582
46.565 0.16789
46.605 0.124159
46.645 0.0600732
46.685 0.0541168
46.725 0.0366842
46.765 0.0224044
46.805 0.0190663
46.845 -0.00084418
46.885 0.00168208
46.925 0.0157153
46.965 0.000119663
47.005 0.00178035
47.045 0.00737614
47.085 0.00690919
47.125 -0.00429467
47.165 0.0168808
47.205 -0.000405204
47.245 0.00247009
47.285 0.00820536
47.325 -0.018516
47.365 -0.00223381
47.405 0.000775019
47.445 0.0203151
47.485 0.018871
47.525 0.00350411
47.565 -0.00253447
47.605 0.00288126
47.645 -0.00711599
47.685 0.00710367
47.725 -0.00408669
47.765 0.00477545
47.805 -0.00715553
47.845 -0.00304016
47.885 0.00135686
47.925 0.00769874
47.965 -0.0128499
48.005 0.00526176
48.045 -0.00571663
48.085 -0.013592
48.125 -0.00595155
48.165 -0.0178652
48.205 -0.00486858
48.245 -0.00589447
48.285 -0.00406391
48.325 0.00566972
48.365 0.000325179
48.405 0.00325916
48.445 -0.0039588
48.485 -0.00838957
48.525 0.0145906
48.565 0.0216032
48.605 0.0425085
48.645 0.0848011
48.685 0.133545
48.725 0.18561
48.765 0.300557
48.805 0.367983
48.845 0.432781
48.885 0.409475
48.925 0.369233
48.965 0.267149
49.005 0.182845
49.045 0.113668
49.085 0.0595427
49.125 0.0347451
49.165 0.00949693
49.205 -0.00581367
49.245 -0.0139468
49.285 -0.0188233
49.325 -0.00648556
49.365 -0.010743
49.405 -0.00352435
49.445 -0.0142888
49.485 -0.00820543
49.525 -0.00388396
49.565 -0.0133209
49.605 -0.00921146
49.645 -0.00833914
49.685 -0.0152066
49.725 -0.0118777
49.765 -0.016054
49.805 -0.0136409
49.845 -0.0160269
49.885 -0.00753414
49.925 -0.0196345
49.965 -0.0072992
50.005 -0.0145635
50.045 -0.0147767
50.085 -0.0100373
50.125 -0.00355298
50.165 -0.0158126
50.205 -0.0162539
50.245 -0.00732454
50.285 -0.00692542
50.325 -0.0120366
50.365 -0.00975864
50.405 -0.0104334
50.445 -0.00851968
50.485 -0.0116154
50.525 -0.00803624
50.565 -0.00757199
50.605 -0.0041987
50.645 -0.0111124
50.685 0.000609628
50.725 -0.00644067
50.765 0.000276194
50.805 0.00562387
50.845 -0.00588442
50.885 0.000540056
50.925 -0.00550934
50.965 0.00235807
51.005 -0.00242381
51.045 -0.00239841
51.085 0.000702655
51.125 -0.00196253
51.165 0.00208353
51.205 -0.00425924
51.245 -0.0037268
51.285 0.00551794
51.325 -0.00361979
51.365 0.00935631
51.405 -0.00567201
51.445 -0.00556248
51.485 0.00346531
51.525 -0.010836
51.565 -0.0127608
51.605 -0.00879572
51.645 -0.000511568
51.685 -0.00514857
51.725 -0.0104596
51.765 -0.00445265
51.805 -0.00833808
51.845 -0.0096334
51.885 -0.00998909
51.925 -0.019009
51.965 -0.00376663
52.005 -0.00837317
52.045 0.000880108
52.085 -0.0149492
52.125 -0.0105288
52.165 0.00198428
52.205 -0.0131687
52.245 0.00716095
52.285 -0.0117906
52.325 -0.00101511
52.365 -0.00125574
52.405 0.00269433
52.445 -0.0057771
52.485 0.00601089
52.525 0.0132192
52.565 0.0169389
52.605 0.0184486
52.645 0.0351741
52.685 0.0441965
52.725 0.0743419
52.765 0.0704351
52.805 0.121436
52.845 0.164651
52.885 0.251414
52.925 0.356604
52.965 0.538768
53.005 0.671437
53.045 0.792896
53.085 0.814538
53.125 0.797882
53.165 0.722436
53.205 0.564406
53.245 0.419446
53.285 0.315651
53.325 0.203691
53.365 0.115477
53.405 0.0812313
53.445 0.0554767
53.485 0.0299304
53.525 0.0115464
53.565 0.0036907
53.605 0.0018431
53.645 0.00184368
53.685 -0.00545465
53.725 -0.000134678
53.765 -0.00759287
53.805 -0.0153809
53.845 -0.0194555
53.885 0.014648
53.925 0.00514651
53.965 0.00191061
54.005 -0.000480037
54.045 0.00494406
54.085 0.00299854
54.125 -0.00125739
54.165 0.0057679
54.205 -0.00938974
54.245 -0.0132493
54.285 -0.0049692
54.325 0.00699624
54.365 -0.00220351
54.405 -0.0126664
54.445 -0.0111942
54.485 0.00125036
54.525 0.00642636
54.565 0.0125665
54.605 -0.0146658
54.645 0.00583932
54.685 -0.000451618
54.725 -0.0140228
54.765 -0.00649311
54.805 -0.00590224
54.845 -0.012408
54.885 -0.00648427
54.925 8.59391e-05
54.965 -0.00961468
55.005 -0.00110918
55.045 0.00336243
55.085 0.00335038
55.125 -0.0171936
55.165 0.0028607
55.205 -0.0122716
55.245 -0.0141749
55.285 -0.00865316
55.325 -0.00223839
55.365 0.000744779
55.405 -0.0186754
55.445 -0.00103997
55.485 -0.00297041
55.525 -0.0079335
55.565 0.00315814
55.605 -0.00152263
55.645 0.00419902
55.685 -0.0116431
55.725 0.0145359
55.765 0.0123351
55.805 0.00658837
55.845 0.0328417
55.885 0.0381048
55.925 0.0559789
55.965 0.0563077
56.005 0.0841482
56.045 0.113083
56.085 0.15469
56.125 0.229928
56.165 0.332546
56.205 0.470181
56.245 0.53823
56.285 0.573765
56.325 0.543722
56.365 0.502566
56.405 0.414357
56.445 0.311357
56.485 0.217342
56.525 0.14722
56.565 0.0913798
56.605 0.0568661
56.645 0.0441181
56.685 0.0257927
56.725 0.00863902
56.765 0.0140734
56.805 -0.0038323
56.845 0.00975422
56.885 0.00426198
56.925 -0.00193174
56.965 0.0115611
57.005 -0.00131564
57.045 -0.0017032
57.085 0.0117259
57.125 0.000741767
57.165 -0.0118623
57.205 0.000616868
57.245 0.0133937
57.285 -0.00207898
57.325 -0.00338808
57.365 -0.016832
57.405 0.00292747
57.445 -0.0164726
57.485 -0.00692464
57.525 0.00237125
57.565 -0.00866793
57.605 -0.00505159
57.645 -0.00115885
57.685 -0.0136477
57.725 -0.0141737
57.765 -0.00207432
57.805 0.00383942
57.845 0.00677239
57.885 0.00127553
57.925 0.00417492
57.965 -0.0148246
58.005 -0.000286005
58.045 0.0135533
58.085 0.00888029
58.125 0.0165149
58.165 0.00156935
58.205 0.0062294
58.245 0.0117314
58.285 0.00342056
58.325 0.00911907
58.365 -0.0014108
58.405 0.00987949
58.445 -0.00865223
58.485 0.0235478
58.525 -0.000502444
58.565 0.00160782
58.605 0.000182552
58.645 0.0195003
58.685 0.00132645
58.725 0.0101626
58.765 0.000126007
58.805 -0.00329134
58.845 0.01621
58.885 0.0140905
58.925 0.0216829
58.965 0.034093
59.005 0.0409993
59.045 0.0432759
59.085 0.0291358
59.125 0.0459358
59.165 0.0373709
59.205 0.0155167
59.245 0.0167482
59.285 0.00281553
59.325 -0.00147281
59.365 -0.00905048
59.405 0.00666701
59.445 0.00244982
59.485 -0.0105276
59.525 0.0136043
59.565 0.00259486
59.605 0.00804403
59.645 -0.000762055
59.685 0.00712959
59.725 0.00832344
59.765 -0.00913319
59.805 -0.000983048
59.845 0.000106197
59.885 0.0196833
59.925 -0.00789621
59.965 -0.00213971
60.005 0.0248492
60.045 0.0103209
60.085 0.0167816
60.125 0.00726227
60.165 0.00317
60.205 0.0066823
60.245 0.0133593
60.285 -0.0175272
60.325 -0.000935651
60.365 0.00655312
60.405 0.00673069
60.445 -0.0174499
60.485 0.00560659
60.525 0.00108101
60.565 -0.00533894
60.605 -0.00527819
60.645 -0.0068682
60.685 0.000596426
60.725 -0.000884191
60.765 0.00387536
60.805 -0.00949206
60.845 -0.00119755
60.885 -0.0039392
60.925 0.00913265
60.965 -0.00955912
61.005 -0.00407546
61.045 0.00199178
61.085 0.00582215
61.125 0.0103387
61.165 0.0249157
61.205 0.018244
61.245 0.0276612
61.285 0.0180476
61.325 0.0576526
61.365 0.0529205
61.405 0.111408
61.445 0.183132
61.485 0.284252
61.525 0.450333
61.565 0.620579
61.605 0.806422
61.645 0.939723
61.685 0.946729
61.725 0.947025
61.765 0.83723
61.805 0.713752
61.845 0.56243
61.885 0.408879
61.925 0.306499
61.965 0.204868
62.005 0.115651
62.045 0.0628404
62.085 0.0223414
62.125 0.0244012
62.165 0.0198584
62.205 0.0102206
62.245 1.15372e-06
62.285 0.000378383
62.325 0.0152947
62.365 -0.00325268
62.405 0.0127155
62.445 0.00670143
62.485 0.0204253
62.525 0.0249045
62.565 0.0499937
62.605 0.0935763
62.645 0.129222
62.685 0.203706
62.725 0.287307
62.765 0.400017
62.805 0.429394
62.845 0.481817
62.885 0.532982
62.925 0.443759
62.965 0.404953
63.005 0.313271
63.045 0.253259
63.085 0.156454
63.125 0.110548
63.165 0.0748887
63.205 0.029856
63.245 0.0218309
63.285 -0.00482945
63.325 -0.00891954
63.365 -0.0012722
63.405 0.00776017
63.445 -0.00118423
63.485 -0.00169947
63.525 -0.00254174
63.565 0.00300084
63.605 -0.00648121
63.645 -0.00294211
63.685 -0.00529081
63.725 -0.000906713
63.765 -0.00444415
63.805 -0.000754325
63.845 -0.0125959
63.885 0.0030735
63.925 -0.00612374
63.965 0.00650146
64.005 -0.0114188
64.045 -0.000183568
64.085 -0.00937233
64.125 0.000552531
64.165 -0.00437951
64.205 -0.00484489
64.245 -0.00735553
64.285 -0.00220417
64.325 -0.0084024
64.365 -0.00848777
64.405 -0.0157913
64.445 0.0120864
64.485 -0.0118753
64.525 -0.0105907
64.565 -4.58229e-05
64.605 0.010945
64.645 0.0023388
64.685 0.00069104
64.725 -0.012595
64.765 -0.00440568
64.805 0.00365514
64.845 0.00442667
64.885 0.000991953
64.925 0.00170287
64.965 -0.0012866
65.005 -0.00571983
65.045 -0.00755264
65.085 -0.00186614
65.125 -0.00592438
65.165 -0.0104958
65.205 -0.000211884
65.245 0.00591069
65.285 -0.012438
65.325 -0.00422957
65.365 -0.00494319
65.405 -0.00351031
65.445 0.00169007
65.485 0.0021687
65.525 0.000391376
65.565 0.00279716
65.605 0.00111929
65.645 0.0115634
65.685 0.0159725
65.725 -0.0011012
65.765 0.00217492
65.805 0.0033546
65.845 0.00104559
65.885 0.00986106
65.925 0.0061431
65.965 0.00988034
66.005 0.008224
66.045 0.0142148
66.085 0.00222821
66.125 0.00324036
66.165 0.023628
66.205 0.0111486
66.245 0.0178524
66.285 0.0219998
66.325 0.0405626
66.365 0.0406828
66.405 0.082155
66.445 0.0989358
66.485 0.148834
66.525 0.206862
66.565 0.31435
66.605 0.42762
66.645 0.476117
66.685 0.56989
66.725 0.593491
66.765 0.590278
66.805 0.542274
66.845 0.473988
66.885 0.417983
66.925 0.329895
66.965 0.240221
67.005 0.197799
67.045 0.144071
67.085 0.080973
67.125 0.0532705
67.165 0.0477251
67.205 0.0356347
67.245 0.021129
67.285 0.0126644
67.325 0.021886
67.365 0.0135085
67.405 0.0034199
67.445 0.00708301
67.485 0.0124031
67.525 0.0279414
67.565 0.0114918
67.605 0.0152805
67.645 0.0248026
67.685 0.00947709
67.725 -0.0134227
67.765 0.00749127
67.805 -0.00297144
67.845 -0.00886363
67.885 -0.0128806
67.925 -0.0133988
67.945 -0.0168892