File: data/xrd/xy/2019-06-18T20_54_55.536969+00_00_LBL_F1.xy
'Id: "" Comment: "Integrate frame 20190723_4triFMePh_02_002.gfrmwith cursor Wedge Cursor #1" Operator: "UC Berkeley" Anode: "Co" Scantype: "TwoTheta" TimePerStep: "600"
23.355 -0.0251342
23.395 -0.00911684
23.435 0.0856845
23.475 0.0782948
23.515 0.0422563
23.555 0.0485248
23.595 0.0630076
23.635 0.0177978
23.675 0.0225488
23.715 0.0232667
23.755 0.0780646
23.795 0.0476169
23.835 0.0264624
23.875 0.0408899
23.915 0.059426
23.955 0.0298139
23.995 0.0343403
24.035 0.0308788
24.075 0.0381971
24.115 0.0581805
24.155 0.0674985
24.195 0.052055
24.235 -0.00370353
24.275 0.153446
24.315 0.105686
24.355 0.0660727
24.395 0.11553
24.435 0.0467923
24.475 0.0957748
24.515 0.0914624
24.555 0.0638535
24.595 0.0831017
24.635 0.109602
24.675 0.0731655
24.715 0.0453866
24.755 0.0373005
24.795 -0.00354215
24.835 0.0371748
24.875 0.110785
24.915 0.146171
24.955 0.0725546
24.995 0.130843
25.035 0.0241016
25.075 0.0991696
25.115 0.0645601
25.155 0.119574
25.195 0.0343673
25.235 -0.0297893
25.275 0.0425915
25.315 0.063326
25.355 0.0726002
25.395 0.0456874
25.435 0.131902
25.475 0.1188
25.515 0.122026
25.555 0.0487761
25.595 0.0516552
25.635 0.14782
25.675 0.0447652
25.715 0.0753312
25.755 0.0531189
25.795 0.0325437
25.835 0.0427566
25.875 0.00201719
25.915 0.0623921
25.955 0.055404
25.995 0.0553905
26.035 0.0452256
26.075 0.139822
26.115 0.265523
26.155 0.347327
26.195 0.398713
26.235 0.431835
26.275 0.354879
26.315 0.204471
26.355 0.138085
26.395 0.0750447
26.435 0.0873493
26.475 0.0255658
26.515 0.0748618
26.555 0.096897
26.595 -0.0085633
26.635 0.0685896
26.675 0.0922321
26.715 0.00942964
26.755 0.031581
26.795 0.130705
26.835 0.119527
26.875 0.122656
26.915 0.0629858
26.955 0.0550324
26.995 0.0352113
27.035 0.0848677
27.075 0.0841493
27.115 -0.00458059
27.155 0.0579302
27.195 0.0489169
27.235 0.0309877
27.275 0.130857
27.315 0.0650913
27.355 0.0461007
27.395 0.132561
27.435 0.0827959
27.475 -0.0217903
27.515 0.00354114
27.555 0.0726823
27.595 0.10489
27.635 0.0903546
27.675 0.0189676
27.715 0.0800637
27.755 0.01101
27.795 0.0440893
27.835 0.0684234
27.875 0.0529324
27.915 0.0623957
27.955 0.0307623
27.995 0.0176816
28.035 0.00803902
28.075 0.0486684
28.115 0.0241899
28.155 0.0533729
28.195 0.0511549
28.235 0.042518
28.275 0.109831
28.315 0.0176978
28.355 0.00247255
28.395 0.0642945
28.435 0.0701454
28.475 0.0740127
28.515 0.0871534
28.555 0.0776564
28.595 0.0810688
28.635 0.0810054
28.675 0.0933281
28.715 0.0155762
28.755 0.0191425
28.795 0.0548701
28.835 0.0648819
28.875 0.021168
28.915 0.125291
28.955 0.0816662
28.995 0.0832234
29.035 0.0149
29.075 0.148161
29.115 0.0978876
29.155 0.093628
29.195 0.0566679
29.235 0.0586762
29.275 0.0828256
29.315 0.0805117
29.355 0.0882911
29.395 0.0846381
29.435 0.0449162
29.475 0.0264869
29.515 0.0283975
29.555 0.108117
29.595 0.162545
29.635 0.222859
29.675 0.248402
29.715 0.427498
29.755 0.379258
29.795 0.286517
29.835 0.178176
29.875 0.182306
29.915 0.209892
29.955 0.346156
29.995 0.460718
30.035 0.879748
30.075 1.66764
30.115 3.2887
30.155 5.3999
30.195 6.7748
30.235 6.99896
30.275 5.62161
30.315 3.58873
30.355 2.08747
30.395 0.984497
30.435 0.491618
30.475 0.326598
30.515 0.134948
30.555 0.13669
30.595 0.11282
30.635 0.064876
30.675 0.0408372
30.715 0.0237206
30.755 0.068846
30.795 0.0242163
30.835 0.0366906
30.875 0.0849413
30.915 0.0705377
30.955 0.00922979
30.995 0.065843
31.035 0.0251803
31.075 0.0429103
31.115 0.0182529
31.155 0.0571405
31.195 0.0621433
31.235 0.0608501
31.275 0.103455
31.315 0.101549
31.355 0.0535234
31.395 0.0362283
31.435 0.0656171
31.475 0.0170212
31.515 0.151422
31.555 0.099104
31.595 0.116868
31.635 0.0544638
31.675 0.0563277
31.715 -0.00748263
31.755 0.0368564
31.795 0.0338698
31.835 0.0391514
31.875 -0.00408326
31.915 0.0353932
31.955 0.0403526
31.995 0.059611
32.035 0.0505566
32.075 0.00757222
32.115 0.0320035
32.155 0.0308651
32.195 0.0452955
32.235 0.0815605
32.275 0.0456863
32.315 0.0682298
32.355 0.0205915
32.395 -0.0206093
32.435 0.0318464
32.475 0.0277234
32.515 0.046824
32.555 0.0314509
32.595 -0.00654276
32.635 0.0354478
32.675 0.0617044
32.715 0.0476835
32.755 -0.0208978
32.795 0.0809745
32.835 0.0466625
32.875 0.0415999
32.915 0.0241252
32.955 0.0637682
32.995 0.0896985
33.035 0.0540048
33.075 0.0316363
33.115 0.0797831
33.155 0.0143403
33.195 0.0278815
33.235 0.0711443
33.275 0.0878014
33.315 0.0589695
33.355 0.0550202
33.395 0.0702532
33.435 0.0287044
33.475 -0.0100626
33.515 0.0347867
33.555 0.0113613
33.595 0.0410819
33.635 0.0631344
33.675 0.0267472
33.715 0.0383493
33.755 0.0293679
33.795 0.0579179
33.835 0.0302123
33.875 0.0685467
33.915 0.0611965
33.955 0.0149764
33.995 0.0402409
34.035 0.0695512
34.075 0.0121944
34.115 0.0881224
34.155 0.0546426
34.195 0.053311
34.235 0.0319401
34.275 0.0135193
34.315 0.0724321
34.355 0.0224451
34.395 0.0509786
34.435 0.0646989
34.475 0.0800212
34.515 0.00743976
34.555 0.0399344
34.595 0.0381882
34.635 0.0122477
34.675 0.0322006
34.715 0.0131705
34.755 0.0318992
34.795 0.00373307
34.835 0.0385139
34.875 0.0231172
34.915 0.0519523
34.955 0.0710583
34.995 0.00151065
35.035 0.0388212
35.075 0.0238161
35.115 0.0228003
35.155 0.0541829
35.195 0.037561
35.235 0.0257338
35.275 0.0444097
35.315 0.0250201
35.355 0.0551343
35.395 0.0183547
35.435 0.00365653
35.475 0.0686553
35.515 0.010144
35.555 0.0620887
35.595 0.0689251
35.635 0.0334783
35.675 0.025675
35.715 0.00909331
35.755 0.0269699
35.795 0.0319938
35.835 0.0993253
35.875 0.0518844
35.915 0.0810746
35.955 0.0596269
35.995 0.0463414
36.035 0.12492
36.075 0.0573927
36.115 0.09147
36.155 0.0687085
36.195 0.0789982
36.235 0.0432188
36.275 -0.0111944
36.315 0.0368646
36.355 0.047496
36.395 0.00282662
36.435 0.0464586
36.475 0.00837867
36.515 -0.0154415
36.555 0.00198275
36.595 0.0378332
36.635 0.0380922
36.675 0.0212633
36.715 0.019868
36.755 0.00361061
36.795 0.0267719
36.835 0.00362548
36.875 -0.0136027
36.915 0.0426715
36.955 0.0036393
36.995 0.0630433
37.035 0.0208526
37.075 0.0415812
37.115 0.00586374
37.155 0.019532
37.195 0.0371534
37.235 0.0201199
37.275 0.0411632
37.315 0.0287206
37.355 0.0136332
37.395 0.0510423
37.435 -0.00593153
37.475 0.0202482
37.515 0.0467861
37.555 0.0655025
37.595 0.014664
37.635 -0.00325899
37.675 0.0386904
37.715 0.0591341
37.755 -0.00320074
37.795 0.0267154
37.835 0.0398922
37.875 -0.00876271
37.915 0.0321969
37.955 0.0179832
37.995 0.029231
38.035 0.0570426
38.075 0.0554399
38.115 0.0338462
38.155 0.029503
38.195 0.0355154
38.235 0.00830743
38.275 -0.0193884
38.315 0.0258604
38.355 0.00573683
38.395 0.0472326
38.435 -0.00537252
38.475 0.0118187
38.515 0.0142425
38.555 0.0063634
38.595 -0.0195855
38.635 0.0401678
38.675 0.03803
38.715 -0.00351997
38.755 0.028635
38.795 0.00507616
38.835 -0.0120138
38.875 0.0241595
38.915 0.00940029
38.955 -0.00886457
38.995 0.0371732
39.035 -0.0101454
39.075 0.00936768
39.115 0.00670748
39.155 0.0348681
39.195 -0.00158435
39.235 0.0297783
39.275 0.0197115
39.315 0.0367961
39.355 0.00508651
39.395 0.0544352
39.435 0.0621197
39.475 0.0401404
39.515 0.0916303
39.555 0.0886819
39.595 0.0991059
39.635 0.128322
39.675 0.165182
39.715 0.223622
39.755 0.30834
39.795 0.449382
39.835 0.767645
39.875 1.13841
39.915 2.00139
39.955 2.97259
39.995 4.00597
40.035 4.39056
40.075 4.41647
40.115 4.0866
40.155 3.11428
40.195 2.2239
40.235 1.48322
40.275 0.954276
40.315 0.592963
40.355 0.383411
40.395 0.281874
40.435 0.14793
40.475 0.173299
40.515 0.0677589
40.555 0.111621
40.595 0.0574079
40.635 0.0461543
40.675 0.0226204
40.715 0.0489381
40.755 0.0659272
40.795 0.0663855
40.835 0.0241073
40.875 -0.0036643
40.915 0.0296987
40.955 0.043473
40.995 0.0212835
41.035 0.00285845
41.075 0.0203596
41.115 0.0153374
41.155 0.0222907
41.195 -0.00416893
41.235 0.0232735
41.275 0.0152447
41.315 0.00112892
41.355 0.0117935
41.395 0.0314012
41.435 0.00097856
41.475 0.0217187
41.515 0.0156695
41.555 0.0636508
41.595 0.0273824
41.635 -0.00056294
41.675 0.00265819
41.715 0.0298686
41.755 0.0110965
41.795 -0.0089197
41.835 0.0115166
41.875 0.000241038
41.915 -0.00322027
41.955 0.00946169
41.995 0.0187786
42.035 0.0176105
42.075 0.046009
42.115 0.0614268
42.155 -0.00514207
42.195 0.0593057
42.235 0.0180489
42.275 0.040705
42.315 0.00607287
42.355 0.0166661
42.395 0.00186539
42.435 0.0212442
42.475 0.053153
42.515 0.000973365
42.555 0.0334939
42.595 0.0385987
42.635 0.00167201
42.675 0.0607821
42.715 0.0030406
42.755 0.0107801
42.795 0.0271561
42.835 0.0451882
42.875 0.0124339
42.915 -0.00190027
42.955 0.0217008
42.995 0.0106185
43.035 0.0236969
43.075 0.0330468
43.115 0.0376775
43.155 -0.0179397
43.195 0.0329388
43.235 0.0310729
43.275 0.0276587
43.315 0.0309611
43.355 0.0476525
43.395 0.0131372
43.435 0.0259327
43.475 0.0330191
43.515 0.0782241
43.555 0.00254379
43.595 0.0547681
43.635 0.057923
43.675 0.0749587
43.715 -0.0183246
43.755 0.00299716
43.795 0.0334495
43.835 0.0303188
43.875 0.0466788
43.915 0.031479
43.955 0.057621
43.995 0.0500111
44.035 0.0571732
44.075 0.0103034
44.115 0.0636431
44.155 0.0359388
44.195 0.0311353
44.235 0.0265397
44.275 0.0654569
44.315 0.0262059
44.355 0.0570664
44.395 0.0453685
44.435 0.0516689
44.475 0.043819
44.515 -0.0111867
44.555 0.0628368
44.595 0.034807
44.635 0.0520719
44.675 0.0340861
44.715 0.0555259
44.755 0.0525551
44.795 0.0449766
44.835 0.0488101
44.875 0.105256
44.915 0.0831994
44.955 0.0712444
44.995 0.19249
45.035 0.288674
45.075 0.391224
45.115 0.685152
45.155 1.03101
45.195 1.15435
45.235 1.37917
45.275 1.46774
45.315 1.29225
45.355 1.06708
45.395 0.81669
45.435 0.571504
45.475 0.295327
45.515 0.200007
45.555 0.105403
45.595 0.0405359
45.635 0.0181209
45.675 0.0709538
45.715 0.0586278
45.755 0.0388139
45.795 0.0240387
45.835 0.117008
45.875 0.0867601
45.915 0.0872373
45.955 0.14026
45.995 0.26696
46.035 0.467224
46.075 0.855782
46.115 1.46046
46.155 1.97255
46.195 2.41433
46.235 2.62685
46.275 2.66539
46.315 2.39159
46.355 2.07335
46.395 1.44085
46.435 1.04
46.475 0.754298
46.515 0.425785
46.555 0.214769
46.595 0.165123
46.635 0.0996119
46.675 0.0546209
46.715 0.0420496
46.755 0.0023899
46.795 0.0243709
46.835 0.0301688
46.875 0.0322537
46.915 0.0462859
46.955 0.029398
46.995 0.0241646
47.035 0.0503549
47.075 0.0275615
47.115 0.0147843
47.155 -0.012995
47.195 0.0496951
47.235 0.00687442
47.275 0.00643744
47.315 0.0168464
47.355 0.0173139
47.395 -0.0179503
47.435 0.0689065
47.475 0.0153663
47.515 0.00881983
47.555 0.0289251
47.595 0.0305661
47.635 -0.00575441
47.675 0.0704035
47.715 0.0374485
47.755 0.0140237
47.795 0.0334009
47.835 0.00557354
47.875 0.0424357
47.915 -0.00053931
47.955 0.0475776
47.995 0.00405478
48.035 0.0729689
48.075 0.00508086
48.115 0.0256362
48.155 0.016599
48.195 0.028099
48.235 0.0450992
48.275 0.0259927
48.315 0.0350396
48.355 0.00748148
48.395 0.0341755
48.435 0.0452685
48.475 0.047375
48.515 0.0516065
48.555 0.109322
48.595 0.192877
48.635 0.332675
48.675 0.384283
48.715 0.447944
48.755 0.523264
48.795 0.568687
48.835 0.581152
48.875 0.605657
48.915 0.485334
48.955 0.325674
48.995 0.243809
49.035 0.189144
49.075 0.106023
49.115 0.0595376
49.155 0.0579887
49.195 0.0299052
49.235 0.00732654
49.275 -0.0125256
49.315 0.0407912
49.355 0.0346376
49.395 0.000572802
49.435 0.00478784
49.475 0.0176318
49.515 0.0409609
49.555 -0.0057798
49.595 0.0135275
49.635 0.000743078
49.675 0.0141524
49.715 0.0166609
49.755 -0.0137786
49.795 0.0016772
49.835 0.00409787
49.875 0.0118103
49.915 -0.00150435
49.955 0.0112367
49.995 0.00300704
50.035 0.0199191
50.075 0.0124686
50.115 -0.00940486
50.155 0.02853
50.195 0.0117375
50.235 0.0248821
50.275 0.0348218
50.315 0.0153449
50.355 0.0132693
50.395 0.0528702
50.435 0.0205803
50.475 0.0379585
50.515 0.00511869
50.555 0.00165986
50.595 0.0203866
50.635 0.031334
50.675 0.0155271
50.715 0.0369844
50.755 0.0106879
50.795 0.00658384
50.835 0.0103002
50.875 0.0212955
50.915 0.0398273
50.955 0.0141902
50.995 0.0291965
51.035 0.0290348
51.075 0.0198775
51.115 0.000875754
51.155 0.021711
51.195 0.0256355
51.235 0.00436977
51.275 0.022599
51.315 0.0293946
51.355 0.00144647
51.395 0.0290774
51.435 0.00453749
51.475 0.011903
51.515 0.0194342
51.555 0.0171081
51.595 0.0577765
51.635 0.0137958
51.675 0.0160471
51.715 0.027555
51.755 -1.29415e-05
51.795 0.00794114
51.835 0.0121812
51.875 0.00822832
51.915 0.0260839
51.955 -7.99441e-05
51.995 0.017188
52.035 0.0132679
52.075 0.0085239
52.115 0.0257411
52.155 0.0458576
52.195 0.0194471
52.235 0.030132
52.275 0.00198548
52.315 0.0113098
52.355 0.0106796
52.395 -0.0045226
52.435 0.0371262
52.475 -0.011717
52.515 0.0078591
52.555 0.0438835
52.595 0.0484261
52.635 0.0565127
52.675 0.0948624
52.715 0.168668
52.755 0.223319
52.795 0.305515
52.835 0.486572
52.875 0.632845
52.915 0.827475
52.955 0.968356
52.995 1.15916
53.035 1.22582
53.075 1.28002
53.115 1.23139
53.155 1.19092
53.195 0.925934
53.235 0.762191
53.275 0.537479
53.315 0.363651
53.355 0.256976
53.395 0.123785
53.435 0.0686468
53.475 0.0608618
53.515 0.0508939
53.555 0.0142481
53.595 0.0255346
53.635 -0.0170903
53.675 0.0106623
53.715 0.00184509
53.755 0.0259536
53.795 0.0218397
53.835 0.0211043
53.875 0.0401529
53.915 0.0676808
53.955 0.0728597
53.995 0.0214216
54.035 0.0272247
54.075 0.0268048
54.115 0.0435084
54.155 0.010652
54.195 -0.0011153
54.235 0.0365186
54.275 0.0247325
54.315 -0.0032995
54.355 -0.0102061
54.395 0.00865868
54.435 0.00112354
54.475 0.0171964
54.515 0.00367532
54.555 0.00436822
54.595 0.0369459
54.635 0.0238239
54.675 -0.00528188
54.715 0.00832499
54.755 -0.00540931
54.795 0.0333146
54.835 0.010507
54.875 0.0214196
54.915 -0.0153705
54.955 0.0124122
54.995 0.0294061
55.035 0.0163233
55.075 0.021817
55.115 0.0236635
55.155 0.00730547
55.195 -0.00130469
55.235 0.0133431
55.275 0.0376764
55.315 0.0290734
55.355 0.00889811
55.395 0.0228601
55.435 0.0406105
55.475 0.00634603
55.515 0.0197147
55.555 0.00197892
55.595 0.0135353
55.635 0.0372871
55.675 0.0417205
55.715 0.0521762
55.755 0.0724135
55.795 0.0145207
55.835 0.0993818
55.875 0.100748
55.915 0.141134
55.955 0.221063
55.995 0.361042
56.035 0.499135
56.075 0.710574
56.115 0.806994
56.155 0.959323
56.195 0.993574
56.235 1.09049
56.275 1.01891
56.315 0.953249
56.355 0.838839
56.395 0.651331
56.435 0.569049
56.475 0.474317
56.515 0.301013
56.555 0.255502
56.595 0.179334
56.635 0.120544
56.675 0.0802829
56.715 0.0587697
56.755 0.0148368
56.795 0.00437434
56.835 0.0342013
56.875 0.0223235
56.915 0.035955
56.955 -0.00711306
56.995 0.0202969
57.035 0.0282877
57.075 -0.0154168
57.115 0.0177283
57.155 0.0289935
57.195 0.0221077
57.235 0.0234648
57.275 0.0504834
57.315 0.0115935
57.355 0.0336652
57.395 0.0354418
57.435 0.0340959
57.475 0.0466731
57.515 0.0457103
57.555 0.0452842
57.595 0.0443072
57.635 0.0285242
57.675 0.0478921
57.715 0.00117585
57.755 0.0165079
57.795 0.0569217
57.835 0.0147266
57.875 0.041364
57.915 0.0214212
57.955 0.00882252
57.995 0.0260974
58.035 0.0229916
58.075 0.0236186
58.115 0.0291586
58.155 0.0352236
58.195 0.0367525
58.235 0.0238242
58.275 0.0131522
58.315 0.034665
58.355 0.00814336
58.395 -0.0143799
58.435 0.0203971
58.475 0.00678184
58.515 0.0173865
58.555 -0.00187516
58.595 0.0188628
58.635 0.003493
58.675 0.000603221
58.715 0.00152976
58.755 -0.013237
58.795 0.0173364
58.835 0.0329274
58.875 0.0279939
58.915 0.010733
58.955 0.0493879
58.995 0.0305103
59.035 0.0356351
59.075 0.0137947
59.115 0.0345579
59.155 0.0454979
59.195 0.00845324
59.235 0.00593419
59.275 0.0345015
59.315 0.0147944
59.355 0.0401362
59.395 0.0251324
59.435 0.0665455
59.475 0.0541265
59.515 0.0209745
59.555 0.0205383
59.595 0.0447641
59.635 0.027847
59.675 -0.0144437
59.715 0.0203943
59.755 0.0533724
59.795 0.0491248
59.835 0.0376032
59.875 0.0413017
59.915 0.038363
59.955 0.0218271
59.995 0.014629
60.035 0.0333869
60.075 0.0457832
60.115 0.0464163
60.155 0.0322784
60.195 -0.00349448
60.235 0.0526123
60.275 0.0405005
60.315 0.0323921
60.355 -0.0114406
60.395 0.0155012
60.435 0.0376801
60.475 0.044191
60.515 0.0293116
60.555 0.0741795
60.595 -0.00056283
60.635 0.0323902
60.675 0.0397179
60.715 -0.0050244
60.755 0.0179432
60.795 -0.00554552
60.835 0.0191219
60.875 0.0239195
60.915 0.0269029
60.955 0.0038522
60.995 0.0260863
61.035 0.0489514
61.075 0.0255124
61.115 0.0549168
61.155 0.0401138
61.195 0.0186289
61.235 0.0604017
61.275 0.0722706
61.315 0.0634892
61.355 0.154165
61.395 0.129281
61.435 0.221129
61.475 0.319679
61.515 0.391584
61.555 0.455417
61.595 0.553276
61.635 0.614519
61.675 0.641833
61.715 0.714661
61.755 0.623319
61.795 0.722364
61.835 0.621362
61.875 0.512942
61.915 0.425078
61.955 0.366025
61.995 0.259624
62.035 0.197439
62.075 0.112545
62.115 0.0932673
62.155 0.023938
62.195 0.0480881
62.235 0.0300018
62.275 0.0400933
62.315 -0.00808963
62.355 0.0389422
62.395 0.0814014
62.435 0.0696631
62.475 0.140681
62.515 0.181259
62.555 0.18772
62.595 0.331883
62.635 0.433202
62.675 0.501084
62.715 0.596631
62.755 0.630026
62.795 0.709817
62.835 0.668372
62.875 0.791725
62.915 0.650383
62.955 0.580433
62.995 0.502337
63.035 0.43587
63.075 0.301781
63.115 0.2103
63.155 0.142721
63.195 0.1284
63.235 0.0803059
63.275 0.0824171
63.315 0.0415223
63.355 0.0155945
63.395 0.00117983
63.435 0.0298506
63.475 -0.0146004
63.515 0.0441867
63.555 0.0360563
63.595 0.0187202
63.635 0.0406155
63.675 0.0410556
63.715 0.0161293
63.755 -0.00893596
63.795 0.0373201
63.835 0.00661546
63.875 -0.00965687
63.915 0.0312405
63.955 0.0125041
63.995 -0.00880901
64.035 0.016188
64.075 0.0238237
64.115 0.0105372
64.155 -0.00795228
64.195 0.0184463
64.235 0.0444547
64.275 0.0186956
64.315 0.0275449
64.355 0.0484519
64.395 0.0167567
64.435 0.0161966
64.475 0.00683507
64.515 0.00459237
64.555 0.0251615
64.595 0.0320166
64.635 0.0232971
64.675 0.0263591
64.715 0.0497476
64.755 0.0374713
64.795 0.0461053
64.835 0.0159896
64.875 0.0642211
64.915 0.0328409
64.955 -0.011126
64.995 0.035892
65.035 0.0285019
65.075 0.0496055
65.115 0.0223108
65.155 0.0236091
65.195 0.0116261
65.235 0.0338898
65.275 0.0304851
65.315 0.0101974
65.355 0.0204665
65.395 0.00591902
65.435 0.00836105
65.475 0.00469459
65.515 0.0244595
65.555 0.0217875
65.595 0.0439796
65.635 0.00363002
65.675 0.024321
65.715 0.00390379
65.755 -0.00200346
65.795 -0.00032879
65.835 0.0194053
65.875 0.0396696
65.915 0.0157863
65.955 0.0250921
65.995 0.0191355
66.035 0.0238544
66.075 0.0354403
66.115 0.0513322
66.155 0.0152686
66.195 0.0216434
66.235 0.013354
66.275 0.0407768
66.315 0.0602191
66.355 0.0498805
66.395 0.137574
66.435 0.182107
66.475 0.208701
66.515 0.296813
66.555 0.389324
66.595 0.477457
66.635 0.531696
66.675 0.50969
66.715 0.553631
66.755 0.50715
66.795 0.511151
66.835 0.46762
66.875 0.436399
66.915 0.362612
66.955 0.320351
66.995 0.221715
67.035 0.185222
67.075 0.139086
67.115 0.109525
67.155 0.0735317
67.195 0.0481559
67.235 0.0460435
67.275 0.0422971
67.315 0.0201023
67.355 0.00961556
67.395 -3.73301e-05
67.435 0.0165367
67.475 0.0097475
67.515 0.00970972
67.555 0.0134652
67.595 -0.00876967
67.635 0.0250001
67.675 -0.0115583
67.715 0.0141036
67.755 0.0275263
67.795 0.0348928
67.835 0.0152237
67.875 0.00580594
67.915 0.070285
67.955 0.0444266
67.995 0.0636398
68.035 0.0806164
68.075 0.0729204
68.115 0.0740918
68.155 0.111969
68.195 0.100516
68.235 0.143975
68.275 0.145256
68.315 0.125151
68.355 0.158769
68.395 0.0864982
68.435 0.0787366
68.475 0.0826138
68.515 0.0818966
68.555 0.0553873
68.595 0.0606353
68.635 0.00441559
68.675 0.0243327
68.715 0.0475264
68.755 0.0213665
68.795 0.0111382
68.835 0.0383481
68.875 0.0128234
68.915 0.0333473
68.955 0.0182747
68.995 0.00154037
69.035 0.013762
69.075 0.00963898
69.115 0.0355417
69.155 0.0312708
69.195 0.0308211
69.235 0.0194464
69.275 0.0441496
69.315 0.0117871
69.355 0.0173722
69.395 0.0189677
69.435 0.0368803
69.475 0.0395484
69.515 -0.0115551
69.555 0.0206433
69.595 0.0316966
69.635 0.0484832
69.675 0.0308852
69.715 0.0351178
69.755 0.0224335
69.795 0.0178686
69.835 0.0363405
69.875 0.0451405
69.915 0.0257169
69.955 0.0254337
69.995 0.00773921
70.035 0.0163231
70.075 3.4739e-05
70.115 0.0138146
70.155 0.0165696
70.195 0.0119907
70.235 0.0356893
70.275 0.0221168
70.315 0.026315
70.355 0.0193906
70.395 0.0386204
70.435 -0.0061712
70.475 0.0115366
70.515 0.00726118
70.555 0.0337684
70.595 0.0507573
70.635 0.042638
70.675 -0.0128025
70.715 0.0328163
70.755 0.0263264
70.795 0.0411006
70.835 0.0205259
70.875 0.009179
70.915 0.0127948
70.955 0.00698023
70.995 0.0146117
71.035 0.00325036
71.075 0.0357211
71.115 0.0583733
71.155 0.0359042
71.195 0.017474
71.235 0.0220941
71.275 0.0348498
71.315 0.0128074
71.355 0.00496195
71.395 0.0373903
71.435 0.0157316
71.475 0.0145187
71.515 0.0151447
71.555 0.0244196
71.595 0.000316927
71.635 0.0070451
71.675 0.0470086
71.715 0.0176177
71.755 0.00889933
71.795 0.0142125
71.835 0.0176252
71.875 -0.0128052
71.915 0.0351281
71.955 0.012453
71.995 0.00487112
72.035 0.0288705
72.075 0.00327773
72.115 0.0148148
72.155 0.017496
72.195 0.0567891
72.235 0.0371246
72.275 -0.0121939
72.315 0.0263113
72.355 0.0190654
72.395 0.025612
72.435 0.0673079
72.475 0.00702393
72.515 0.0235831
72.555 0.0615596
72.595 0.0338104
72.635 0.077284
72.675 0.0810191
72.715 0.10571
72.755 0.135416
72.795 0.156023
72.835 0.138256
72.875 0.194009
72.915 0.188399
72.955 0.184921
72.995 0.186433
73.035 0.219205
73.075 0.212207
73.115 0.214807
73.155 0.175195
73.195 0.16603
73.235 0.168024
73.275 0.0880646
73.315 0.0996373
73.355 0.100718
73.395 0.0812934
73.435 0.0842974
73.475 0.0544449
73.515 0.0424351
73.555 0.0524325
73.595 0.029355
73.635 0.030485
73.675 0.0392143
73.715 0.0228104
73.755 0.00648864
73.795 0.00729014
73.835 0.0242545
73.875 -0.000257012
73.915 0.0441509
73.955 0.0385639
73.995 0.0374775
74.035 0.0228315
74.075 0.0133524
74.115 0.014401
74.155 0.0377998
74.195 0.0121742
74.235 0.0113742
74.275 0.0069684
74.315 0.014243
74.355 0.0168219
74.395 0.0356609
74.435 0.00409434
74.475 0.0118212
74.515 0.0539854
74.555 0.0265288
74.595 -0.0115633
74.635 0.0296167
74.675 0.0327278
74.715 0.0291193
74.755 0.0379042
74.795 0.00929145
74.835 0.00229108
74.875 0.0220284
74.915 0.0229676
74.955 0.0082272
74.995 0.0284633
75.035 0.0167745
75.075 -0.0151894
75.115 0.0229028
75.155 0.00852167
75.195 0.0206185
75.235 0.0253316
75.275 0.0322137
75.315 0.0491176
75.355 0.121185
75.395 0.151326
75.435 0.161069
75.475 0.193934
75.515 0.209554
75.555 0.259552
75.595 0.283599
75.635 0.272418
75.675 0.243577
75.715 0.222057
75.755 0.229024
75.795 0.15898
75.835 0.0553982
75.875 0.0393659
75.915 -0.020033