File: data/xrd/xy/2019-05-30T15_19_31.623252+00_00_LBL_H3.xy
'Id: "" Comment: "Integrate frame neopen_trifluo_01_001.gfrmwith cursor Wedge Cursor #1" Operator: "UC Berkeley" Anode: "Co" Scantype: "TwoTheta" TimePerStep: "700"
13.885 -0.0237601
13.925 -0.00918632
13.965 0.0508811
14.005 0.0150328
14.045 0.0490075
14.085 0.00911351
14.125 0.0264381
14.165 0.0228775
14.205 0.0916525
14.245 0.0879342
14.285 0.0432183
14.325 0.0612271
14.365 0.0505185
14.405 0.0666023
14.445 0.0117724
14.485 0.0795028
14.525 0.104266
14.565 0.135748
14.605 0.194961
14.645 0.248591
14.685 0.334087
14.725 0.28453
14.765 0.285413
14.805 0.215007
14.845 0.200875
14.885 0.135337
14.925 0.0574984
14.965 0.112435
15.005 0.06315
15.045 0.0565037
15.085 0.0418337
15.125 0.00626514
15.165 0.0447191
15.205 0.045351
15.245 0.0307124
15.285 0.0429245
15.325 0.025569
15.365 0.0352815
15.405 0.0122852
15.445 0.0746459
15.485 0.0555565
15.525 0.019534
15.565 0.0317592
15.605 0.0582955
15.645 0.0175554
15.685 0.00805882
15.725 0.0328165
15.765 0.0455825
15.805 0.00692368
15.845 0.0633442
15.885 0.0353271
15.925 -0.00820791
15.965 0.0590382
16.005 0.0589376
16.045 0.0385658
16.085 0.0310818
16.125 0.0424934
16.165 0.046251
16.205 0.0217326
16.245 -0.00665002
16.285 -0.00224786
16.325 0.0147002
16.365 0.0616949
16.405 0.0413018
16.445 0.0169145
16.485 0.00742111
16.525 0.0377974
16.565 0.0344338
16.605 0.0144685
16.645 -0.00414974
16.685 0.0579395
16.725 0.0170585
16.765 0.0424159
16.805 0.038116
16.845 0.0441115
16.885 0.0433033
16.925 -0.00096409
16.965 0.0372897
17.005 0.00713472
17.045 0.0400919
17.085 0.0299314
17.125 0.026313
17.165 0.0510129
17.205 0.0404161
17.245 -0.00519328
17.285 0.0478676
17.325 0.0136615
17.365 0.0324429
17.405 0.0305117
17.445 0.0293491
17.485 0.0205307
17.525 0.0521036
17.565 -0.00229789
17.605 0.0273323
17.645 0.0195863
17.685 0.0142174
17.725 0.019766
17.765 0.00487791
17.805 0.0156501
17.845 0.0203828
17.885 0.00717363
17.925 0.0687979
17.965 0.0624847
18.005 0.0357708
18.045 0.0160899
18.085 0.002035
18.125 0.00693353
18.165 0.0364726
18.205 0.0173879
18.245 0.020407
18.285 0.00326804
18.325 0.0170978
18.365 0.0149639
18.405 0.0216251
18.445 0.0160367
18.485 0.0269482
18.525 0.00280309
18.565 0.0119074
18.605 0.00155854
18.645 0.000691176
18.685 0.044729
18.725 0.0254585
18.765 0.0543502
18.805 0.000629165
18.845 0.0210437
18.885 0.00374829
18.925 -0.0140072
18.965 0.0407543
19.005 0.0380763
19.045 0.0403108
19.085 0.0266539
19.125 0.0232154
19.165 0.0330832
19.205 0.0372386
19.245 0.0565547
19.285 -0.000981082
19.325 0.0159723
19.365 0.016054
19.405 0.0302354
19.445 0.0250042
19.485 0.0182149
19.525 0.0610815
19.565 0.0142877
19.605 0.0220793
19.645 0.00719746
19.685 0.0429214
19.725 0.0378569
19.765 0.0431305
19.805 0.0189187
19.845 0.0358775
19.885 0.042741
19.925 0.0113733
19.965 -0.00580728
20.005 0.00354038
20.045 0.00947981
20.085 0.0225793
20.125 0.017151
20.165 0.0129271
20.205 -0.00625445
20.245 0.0104764
20.285 0.0274103
20.325 -0.0117269
20.365 0.0133879
20.405 -0.00767823
20.445 -0.0130175
20.485 0.0251757
20.525 0.00727541
20.565 0.0127058
20.605 0.0327407
20.645 -0.00435316
20.685 0.0501341
20.725 0.0289655
20.765 0.00299329
20.805 -0.00393101
20.845 0.00688059
20.885 0.0237148
20.925 0.0162628
20.965 0.0267849
21.005 0.0373415
21.045 0.0134922
21.085 0.0340797
21.125 0.0265889
21.165 -0.003579
21.205 0.00608295
21.245 0.0356407
21.285 -0.00386223
21.325 0.00318987
21.365 0.0331024
21.405 0.0255718
21.445 0.0189292
21.485 0.0256638
21.525 0.00466443
21.565 -0.0069242
21.605 0.0339441
21.645 0.00576556
21.685 -0.0137301
21.725 0.0221874
21.765 0.0221944
21.805 0.0511726
21.845 0.0361592
21.885 0.0075505
21.925 0.00164397
21.965 -0.0152407
22.005 0.0327941
22.045 -0.00569124
22.085 0.0394892
22.125 0.0191254
22.165 0.0158123
22.205 0.0303979
22.245 0.0360385
22.285 0.0189454
22.325 0.0318858
22.365 0.00538625
22.405 0.041572
22.445 -0.0199033
22.485 0.0260813
22.525 0.0361108
22.565 -0.00595825
22.605 0.036567
22.645 0.0195461
22.685 0.0304868
22.725 0.0401308
22.765 0.0314771
22.805 0.00368754
22.845 0.0582732
22.885 0.0406293
22.925 0.00856144
22.965 0.0335616
23.005 0.0410242
23.045 0.0313481
23.085 0.0482556
23.125 0.0181118
23.165 0.00881858
23.205 0.0431489
23.245 -0.0244672
23.285 0.0445326
23.325 0.024922
23.365 0.0557154
23.405 0.035711
23.445 0.00778159
23.485 0.0242737
23.525 -0.0104621
23.565 0.0286672
23.605 -0.0244833
23.645 0.0199983
23.685 0.0480945
23.725 0.043431
23.765 0.0276803
23.805 0.018665
23.845 0.024649
23.885 0.0360672
23.925 -0.000760965
23.965 0.0262915
24.005 0.0497477
24.045 0.0170643
24.085 -0.00533274
24.125 0.0224845
24.165 0.0356945
24.205 0.0162261
24.245 0.0354608
24.285 0.0286557
24.325 0.0214773
24.365 0.0186326
24.405 0.0121602
24.445 -0.00999039
24.485 -0.00668638
24.525 0.00642014
24.565 0.0287952
24.605 0.00209183
24.645 0.0505206
24.685 0.0500758
24.725 0.0331746
24.765 -0.00194195
24.805 -0.0139925
24.845 -0.00302041
24.885 0.0176626
24.925 0.0232181
24.965 0.00131846
25.005 0.0402992
25.045 0.025628
25.085 0.026802
25.125 0.00483613
25.165 0.0205442
25.205 -0.00246885
25.245 0.0063411
25.285 0.00666876
25.325 0.000929728
25.365 -0.0193302
25.405 0.000903717
25.445 0.00333453
25.485 0.0222164
25.525 0.0366129
25.565 0.0215961
25.605 0.0104837
25.645 0.0168485
25.685 0.0165872
25.725 -0.00468153
25.765 0.0566784
25.805 -0.00507524
25.845 0.0298761
25.885 0.0517407
25.925 0.0352991
25.965 0.0296089
26.005 -0.0116626
26.045 0.0213655
26.085 0.0355346
26.125 0.0393902
26.165 0.0419763
26.205 0.0481986
26.245 0.0424456
26.285 0.00362758
26.325 0.0613874
26.365 0.0843305
26.405 0.0321339
26.445 0.0262905
26.485 0.0359129
26.525 0.0273478
26.565 0.0575429
26.605 0.0428446
26.645 0.0549879
26.685 0.0596688
26.725 0.0475432
26.765 0.0420941
26.805 0.0465007
26.845 0.0678317
26.885 0.0499094
26.925 0.0257058
26.965 0.0478311
27.005 0.0401056
27.045 0.0359408
27.085 0.0822666
27.125 0.0947516
27.165 0.139637
27.205 0.144928
27.245 0.133644
27.285 0.172364
27.325 0.113218
27.365 0.0926163
27.405 0.0673795
27.445 0.0749207
27.485 0.0376026
27.525 0.047456
27.565 0.0443222
27.605 0.0498455
27.645 0.00575018
27.685 0.0452621
27.725 0.00237105
27.765 0.0543699
27.805 0.0309053
27.845 0.029213
27.885 0.0154896
27.925 0.031377
27.965 0.0530597
28.005 0.067403
28.045 0.0243912
28.085 0.0234808
28.125 0.0186004
28.165 0.0164091
28.205 0.0417291
28.245 0.00438185
28.285 0.00509872
28.325 0.00259921
28.365 -0.00631032
28.405 0.00688314
28.445 -0.00198224
28.485 0.0242715
28.525 0.0268755
28.565 0.00195688
28.605 -0.0189485
28.645 0.0193361
28.685 0.0367862
28.725 0.0460057
28.765 0.0197601
28.805 0.0152
28.845 0.018442
28.885 0.0444568
28.925 0.0537475
28.965 0.0343958
29.005 0.057453
29.045 0.0845352
29.085 0.0775257
29.125 0.0730714
29.165 0.0260688
29.205 0.0581102
29.245 0.0332199
29.285 0.0489405
29.325 0.0458721
29.365 0.0577134
29.405 0.0651251
29.445 0.0576201
29.485 0.0402844
29.525 0.0795134
29.565 0.0606254
29.605 0.0950506
29.645 0.0768712
29.685 0.0852194
29.725 0.084606
29.765 0.0769619
29.805 0.0765517
29.845 0.0756154
29.885 0.0560079
29.925 0.0891906
29.965 0.0904697
30.005 0.109817
30.045 0.138324
30.085 0.243726
30.125 0.27584
30.165 0.343601
30.205 0.333021
30.245 0.325487
30.285 0.242775
30.325 0.218364
30.365 0.143618
30.405 0.0957218
30.445 0.0763589
30.485 0.0805114
30.525 0.0844133
30.565 0.0491705
30.605 0.0559415
30.645 0.0274663
30.685 0.076677
30.725 0.0745032
30.765 0.0386947
30.805 0.0428375
30.845 0.0433917
30.885 0.0253351
30.925 0.0577343
30.965 0.0351763
31.005 0.0160282
31.045 0.0634023
31.085 0.0501099
31.125 0.021349
31.165 0.026632
31.205 0.0434767
31.245 0.0220036
31.285 0.0560951
31.325 0.0371159
31.365 0.0250423
31.405 0.0260716
31.445 0.0461799
31.485 0.037518
31.525 0.0308574
31.565 0.0220038
31.605 0.0311642
31.645 -0.00712988
31.685 0.00463407
31.725 0.021724
31.765 -0.0188662
31.805 0.0190967
31.845 -0.00801146
31.885 0.0201283
31.925 0.000886612
31.965 -0.00926566
32.005 0.0185397
32.045 0.0242118
32.085 0.00567746
32.125 -0.00245146
32.165 0.00214573
32.205 0.00774408
32.245 0.0043702
32.285 0.00928497
32.325 0.00220955
32.365 0.0175859
32.405 -0.00690662
32.445 0.00488025
32.485 -0.00103165
32.525 0.016322
32.565 -0.0138718
32.605 -0.0222601
32.645 0.00507754
32.685 0.0176434
32.725 0.00444396
32.765 0.0309644
32.805 0.0334058
32.845 0.0198448
32.885 0.0530629
32.925 0.0399059
32.965 0.0552975
33.005 0.0520295
33.045 0.046274
33.085 0.0579729
33.125 0.0475277
33.165 0.0456979
33.205 0.0366067
33.245 0.0573971
33.285 0.0361312
33.325 0.0396309
33.365 0.0471475
33.405 0.0162842
33.445 0.0381897
33.485 0.0524441
33.525 0.0520048
33.565 0.0414313
33.605 0.0350142
33.645 0.036414
33.685 0.0632748
33.725 0.040014
33.765 0.0519574
33.805 0.0413085
33.845 0.0237301
33.885 0.0557985
33.925 0.0570657
33.965 0.0425631
34.005 0.0518113
34.045 0.0623598
34.085 0.0524367
34.125 0.0507706
34.165 0.0672313
34.205 0.0589588
34.245 0.0695385
34.285 0.0680685
34.325 0.0891965
34.365 0.10778
34.405 0.171759
34.445 0.248494
34.485 0.332268
34.525 0.394255
34.565 0.415363
34.605 0.374055
34.645 0.320419
34.685 0.242861
34.725 0.185398
34.765 0.147509
34.805 0.128794
34.845 0.0634051
34.885 0.0809697
34.925 0.0598812
34.965 0.0675749
35.005 0.0426079
35.045 0.0629593
35.085 0.0472831
35.125 0.0359881
35.165 0.0434921
35.205 0.0394034
35.245 0.029769
35.285 0.0466981
35.325 0.0470698
35.365 0.0282822
35.405 0.0309138
35.445 0.046359
35.485 0.0223724
35.525 0.0411621
35.565 0.0449377
35.605 0.0586859
35.645 0.0477
35.685 0.0294882
35.725 0.0355405
35.765 0.0523821
35.805 0.0417338
35.845 0.0474752
35.885 0.061078
35.925 0.0356955
35.965 0.0553745
36.005 0.0556012
36.045 0.0764814
36.085 0.0564416
36.125 0.0842058
36.165 0.0573355
36.205 0.0621939
36.245 0.0614459
36.285 0.0601691
36.325 0.0583577
36.365 0.06612
36.405 0.033333
36.445 0.0408681
36.485 0.0302824
36.525 0.0290788
36.565 0.0255664
36.605 0.0179656
36.645 0.0219556
36.685 0.0265588
36.725 0.0201473
36.765 0.0115915
36.805 0.0229849
36.845 0.00881001
36.885 0.0186922
36.925 0.014664
36.965 0.0163717
37.005 0.0112817
37.045 -0.00328659
37.085 0.00482307
37.125 -0.0111066
37.165 0.0101599
37.205 0.00983453
37.245 0.00544104
37.285 0.00153112
37.325 -0.0121859
37.365 -0.00790855
37.405 -0.00566614
37.445 -0.0136438
37.485 -0.00169727
37.525 -0.00319874
37.565 -0.00256263
37.605 0.00425004
37.645 0.00038186
37.685 0.00207477
37.725 -0.016898
37.765 0.00228601
37.805 0.00348664
37.845 0.00485013
37.885 -0.00499885
37.925 -0.00844761
37.965 -0.00791616
38.005 -0.0102841
38.045 -0.00155371
38.085 -0.00892973
38.125 0.00329115
38.165 -0.000570863
38.205 -0.0140811
38.245 0.00852794
38.285 -0.00285807
38.325 0.00641828
38.365 0.00889148
38.405 -0.0099896
38.445 -0.00204474
38.485 0.00069988
38.525 0.00539158
38.565 0.00566398
38.605 -0.0181087
38.645 0.00983364
38.685 -0.000969102
38.725 -0.00302427
38.765 0.00660115
38.805 -0.0082082
38.845 0.00450395
38.885 -0.013994
38.925 0.0155845
38.965 -0.0117689
39.005 -0.000626192
39.045 -0.00495894
39.085 0.000406872
39.125 0.00252501
39.165 -0.000415492
39.205 0.000904449
39.245 -0.00879782
39.285 0.00109518
39.325 -0.0109171
39.365 0.00821736
39.405 -0.0014416
39.445 0.00264966
39.485 -0.000205385
39.525 0.00956353
39.565 0.00756992
39.605 0.0198257
39.645 0.0148151
39.685 0.0110352
39.725 0.0250831
39.765 0.0156111
39.805 0.0427038
39.845 0.0339826
39.885 0.075256
39.925 0.0870147
39.965 0.0995031
40.005 0.0837615
40.045 0.0776291
40.085 0.0740894
40.125 0.0528228
40.165 0.047902
40.205 0.0313754
40.245 0.0378474
40.285 0.017491
40.325 -0.00219659
40.365 0.00513538
40.405 -0.00885849
40.445 -0.00161102
40.485 0.0235387
40.525 0.0166331
40.565 0.00710891
40.605 0.0131384
40.645 -0.00622204
40.685 -0.00305928
40.725 0.00793167
40.765 -0.00584054
40.805 -0.000489711
40.845 0.0128829
40.885 0.01231
40.925 0.0121944
40.965 -0.00472335
41.005 0.0109099
41.045 0.0106641
41.085 0.00788606
41.125 0.0149916
41.165 0.010973
41.205 0.00131258
41.245 -0.0165003
41.285 0.00327145
41.325 0.0193928
41.365 0.00756942
41.405 -0.00168076
41.445 -0.00459125
41.485 -0.0119416
41.525 -0.00397867
41.565 0.0207563
41.605 0.00799849
41.645 0.0148232
41.685 0.0150693
41.725 -0.00382997
41.765 -0.000753158
41.805 0.00292577
41.845 -0.00373194
41.885 -0.000737907
41.925 -0.00338299
41.965 -0.0108777
42.005 0.00305313
42.045 0.0216982
42.085 0.00468546
42.125 -2.22167e-05
42.165 0.0248767
42.205 -0.00576692
42.245 -0.00358465
42.285 0.0141715
42.325 -0.00163998
42.365 -0.0125709
42.405 0.00616082
42.445 0.00427874
42.485 -0.000213218
42.525 0.0273998
42.565 0.00666515
42.605 -0.00123772
42.645 0.000277889
42.685 -0.00734233
42.725 -0.00867618
42.765 0.00192303
42.805 -0.00850488
42.845 0.000112543
42.885 0.0096553
42.925 0.0166451
42.965 -0.00406516
43.005 0.000545128
43.045 0.0126847
43.085 0.00745522
43.125 0.0090843
43.165 -0.0103384
43.205 -0.0119425
43.245 0.000322486
43.285 0.00581097
43.325 0.0107475
43.365 0.0102985
43.405 0.0144468
43.445 -0.0117044
43.485 0.00820327
43.525 -0.0062878
43.565 0.00597856
43.605 -0.0130808
43.645 0.0329135
43.685 -0.00138218
43.725 0.00912539
43.765 0.00318613
43.805 0.00697264
43.845 0.00834617
43.885 0.0143804
43.925 0.00269011
43.965 0.00282904
44.005 0.0244283
44.045 0.0337715
44.085 0.00890644
44.125 0.026583
44.165 0.0355549
44.205 0.0143554
44.245 0.023836
44.285 0.0230529
44.325 0.0170467
44.365 0.0180143
44.405 0.017938
44.445 0.0103616
44.485 0.0230192
44.525 0.0199439
44.565 0.0197143
44.605 0.0208969
44.645 0.0143259
44.685 0.0174294
44.725 0.0179102
44.765 0.0141013
44.805 0.0465538
44.845 0.0433932
44.885 0.0828653
44.925 0.112084
44.965 0.154097
45.005 0.188693
45.045 0.249019
45.085 0.327981
45.125 0.329035
45.165 0.345189
45.205 0.283443
45.245 0.223575
45.285 0.149877
45.325 0.113094
45.365 0.0701657
45.405 0.0582963
45.445 0.0488746
45.485 0.0366531
45.525 0.023731
45.565 0.0220973
45.605 0.0287044
45.645 0.0149679
45.685 0.0243567
45.725 0.0449968
45.765 0.0487319
45.805 0.057023
45.845 0.0570965
45.885 0.0806339
45.925 0.116145
45.965 0.160869
46.005 0.242199
46.045 0.398215
46.085 0.552968
46.125 0.770382
46.165 0.949081
46.205 1.028
46.245 1.10174
46.285 1.06473
46.325 0.955404
46.365 0.7792
46.405 0.62483
46.445 0.425229
46.485 0.283342
46.525 0.171873
46.565 0.0943612
46.605 0.0706301
46.645 0.0428911
46.685 0.0445693
46.725 0.0400154
46.765 0.0255222
46.805 0.0222994
46.845 0.0108908
46.885 0.0136281
46.925 0.00883458
46.965 0.0308372
47.005 0.0137597
47.045 0.00746782
47.085 -0.00382573
47.125 -0.00166678
47.165 0.00279454
47.205 0.00362375
47.245 0.00759399
47.285 0.0165589
47.325 0.0127916
47.365 0.0121194
47.405 -0.00515502
47.445 0.00713972
47.485 0.00837296
47.525 -0.011265
47.565 -0.00395608
47.605 0.00896433
47.645 0.00444811
47.685 0.0168436
47.725 0.0118966
47.765 0.0183928
47.805 -0.00287737
47.845 0.003859
47.885 0.015838
47.925 0.00772889
47.965 0.0172522
48.005 0.0140595
48.045 0.00569842
48.085 0.0131792
48.125 -0.00816301
48.165 0.00130652
48.205 0.0155894
48.245 0.0133054
48.285 0.0211848
48.325 0.0160312
48.365 0.0121127
48.405 -0.00153569
48.445 0.0238379
48.485 0.0153893
48.525 0.0418522
48.565 0.074014
48.605 0.0948385
48.645 0.138037
48.685 0.183732
48.725 0.202797
48.765 0.23604
48.805 0.228082
48.845 0.214004
48.885 0.17635
48.925 0.138388
48.965 0.105725
49.005 0.0666608
49.045 0.0367873
49.085 0.0338519
49.125 0.00425437
49.165 0.0161476
49.205 0.0221557
49.245 -0.0142134
49.285 0.00520533
49.325 -0.00323863
49.365 0.00373126
49.405 0.00452293
49.445 0.00479416
49.485 -0.00431218
49.525 -0.00284984
49.565 -0.0134003
49.605 -0.00840953
49.645 0.00391578
49.685 -0.000923383
49.725 -0.00302067
49.765 0.00602273
49.805 -0.00213065
49.845 -0.00868843
49.885 -0.00291436
49.925 -0.00797838
49.965 0.00644382
50.005 0.00437938
50.045 -0.00947505
50.085 -0.000947426
50.125 0.000740321
50.165 -0.0089823
50.205 -0.00569142
50.245 -0.00635091
50.285 -0.0102108
50.325 -0.000972611
50.365 -0.0051293
50.405 -0.0108738
50.445 -0.00968981
50.485 -0.0065702
50.525 0.00924391
50.565 0.000199285
50.605 0.00660678
50.645 0.00140627
50.685 0.0103006
50.725 0.00361388
50.765 0.00327685
50.805 -0.0019594
50.845 0.00944873
50.885 -0.00366719
50.925 -0.00285197
50.965 0.00963952
51.005 -0.00967192
51.045 0.00186295
51.085 -0.00169023
51.125 -0.00807028
51.165 4.19622e-05
51.205 -0.0054787
51.245 0.00510226
51.285 0.000857748
51.325 0.0117749
51.365 -1.40013e-05
51.405 -0.00329094
51.445 -0.0120772
51.485 0.00562864
51.525 -0.0105402
51.565 0.00141703
51.605 -0.0105358
51.645 -0.00172558
51.685 0.0026256
51.725 -0.0055475
51.765 -0.00151372
51.805 -0.0114543
51.845 0.00112908
51.885 -0.000341407
51.925 -0.00760938
51.965 -0.00211568
52.005 -0.00913256
52.045 0.00155007
52.085 0.00447176
52.125 -0.00691509
52.165 -0.0166811
52.205 -0.011204
52.245 -0.00130555
52.285 -0.00666534
52.325 -0.00216967
52.365 0.00966457
52.405 -0.0105807
52.445 -0.00169823
52.485 -0.000723095
52.525 -0.0166461
52.565 0.00030007
52.605 -0.00353473
52.645 0.0125273
52.685 0.00690637
52.725 0.0380158
52.765 0.0442556
52.805 0.0362491
52.845 0.0613729
52.885 0.076968
52.925 0.0909502
52.965 0.0985688
53.005 0.0970997
53.045 0.08127
53.085 0.0640619
53.125 0.054914
53.165 0.0464027
53.205 0.0370397
53.245 0.0178928
53.285 0.0201968
53.325 0.00546038
53.365 -0.00990568
53.405 0.0149067
53.445 0.00387928
53.485 -0.00683547
53.525 -0.00778933
53.565 -0.00791067
53.605 -0.00447168
53.645 -0.00548441
53.685 -0.0126668
53.725 -0.0134156
53.765 -0.0087645
53.805 -0.0148915
53.845 -0.0136061
53.885 -0.00181493
53.925 -0.0132532
53.965 -0.00864765
54.005 -0.000664978
54.045 -0.010018
54.085 0.00257045
54.125 0.00329921
54.165 0.0149612
54.205 0.00258719
54.245 0.00979958
54.285 0.00765308
54.325 0.0214194
54.365 0.0309899
54.405 0.0286596
54.445 0.027149
54.485 0.0218783
54.525 0.0282741
54.565 0.0289082
54.605 0.02735
54.645 0.0228612
54.685 0.0117264
54.725 0.0133433
54.765 0.0259868
54.805 0.0065942
54.845 0.00996676
54.885 0.000752497
54.925 0.00771455
54.965 -0.00520764
55.005 -0.00536619
55.045 -0.000943208
55.085 -0.00376691
55.125 -0.00949861
55.165 -0.00919884
55.205 -0.0115001
55.245 -0.0080364
55.285 -0.015984
55.325 -0.000983578
55.365 -0.00167678
55.405 0.00181213
55.445 0.00400701
55.485 0.013176
55.525 0.00661229
55.565 0.0094063
55.605 0.0143006
55.645 0.00281963
55.685 0.0141188
55.725 0.0182256
55.765 0.00781696
55.805 0.0276446
55.845 0.0255295
55.885 0.0283962
55.925 0.0209187
55.965 0.0382305
56.005 0.0441644
56.045 0.0575144
56.085 0.0535037
56.125 0.0546924
56.165 0.0429843
56.205 0.0569482
56.245 0.0582742
56.285 0.0492583
56.325 0.0588931
56.365 0.054887
56.405 0.0347528
56.445 0.0321851
56.485 0.0172725
56.525 0.0209764
56.565 0.0126523
56.605 0.0137209
56.645 -0.00513003
56.685 0.0110889
56.725 -0.00934451
56.765 -0.0011651
56.805 -0.00703182
56.845 0.0040753
56.885 -0.000980465
56.925 0.000108407
56.965 0.00888235
57.005 -0.0103072
57.045 0.00296618
57.085 -0.0022185
57.125 -0.00759463
57.165 0.00125575
57.205 0.0110006
57.245 0.00737184
57.285 -0.00784873
57.325 0.000222362
57.365 -0.00854636
57.405 -0.00399435
57.445 -0.00313933
57.485 0.0123765
57.525 0.00187252
57.565 -0.00818413
57.605 0.00372445
57.645 0.00982636
57.685 0.00944531
57.725 0.0152617
57.765 0.00165303
57.805 0.00195387
57.845 -0.00782715
57.885 0.000334734
57.925 0.015149
57.965 0.00937813
58.005 0.0283163
58.045 0.0165375
58.085 0.0223834
58.125 0.0156512
58.165 0.00905099
58.205 0.00340689
58.245 0.0158656
58.285 0.0138792
58.325 0.0171169
58.365 0.00905494
58.405 0.0119839
58.445 0.0078125
58.485 0.00874403
58.525 0.0210906
58.565 0.00706843
58.605 0.0226011
58.645 0.0110902
58.685 0.0219924
58.725 0.0194518
58.765 0.0521785
58.805 0.0453813
58.845 0.0585973
58.885 0.0595617
58.925 0.0614289
58.965 0.0871859
59.005 0.0566562
59.045 0.0544527
59.085 0.0630842
59.125 0.0646454
59.165 0.0600762
59.205 0.050959
59.245 0.0395503
59.285 0.0419125
59.325 0.0171614
59.365 0.0157514
59.405 0.0138156
59.445 0.0243586
59.485 0.025863
59.525 0.00775545
59.565 -9.30288e-05
59.605 0.00929793
59.645 0.00219307
59.685 0.00523597
59.725 0.0209786
59.765 0.0123904
59.805 -0.000577209
59.845 0.00654771
59.885 0.0283604
59.925 0.0183745
59.965 0.0160114
60.005 0.0166862
60.045 0.0185931
60.085 0.0242982
60.125 0.0243707
60.165 0.0180983
60.205 0.0214199
60.245 0.0285564
60.285 -0.0109847
60.325 0.0192031
60.365 -0.000624586
60.405 0.0115955
60.445 0.0210266
60.485 0.0136868
60.525 0.00309671
60.565 0.00511267
60.605 -0.00360109
60.645 -0.0066051
60.685 -0.00568042
60.725 -0.00636336
60.765 -0.00600646
60.805 0.00183449
60.845 3.13116e-05
60.885 -0.00252079
60.925 -0.0119288
60.965 -0.00559807
61.005 -0.00336443
61.045 0.0170991
61.085 0.0189915
61.125 0.0120379
61.165 0.00697699
61.205 0.0262429
61.245 0.0572612
61.285 0.0552056
61.325 0.076137
61.365 0.106414
61.405 0.142776
61.445 0.188606
61.485 0.179954
61.525 0.187381
61.565 0.224714
61.605 0.248971
61.645 0.27858
61.685 0.293377
61.725 0.26238
61.765 0.211083
61.805 0.168913
61.845 0.104003
61.885 0.0769124
61.925 0.0358405
61.965 0.0154594
62.005 0.0149616
62.045 0.0160654
62.085 -0.0138937
62.125 0.00968281
62.165 -0.00894167
62.205 -0.00634121
62.245 0.00969924
62.285 -0.00606297
62.325 0.00650317
62.365 -0.00784282
62.405 0.0108917
62.445 0.00775586
62.485 0.0150813
62.525 0.00591694
62.565 0.0150981
62.605 0.0250512
62.645 0.0243698
62.685 0.0190676
62.725 0.0321246
62.765 0.0255465
62.805 0.0343258
62.845 0.0354492
62.885 0.0372198
62.925 0.0219487
62.965 0.0268377
63.005 0.0216298
63.045 0.0134997
63.085 0.0162877
63.125 4.5169e-05
63.165 -0.00473117
63.205 0.0061486
63.245 0.00986468
63.285 0.00316692
63.325 0.0176441
63.365 0.0135666
63.405 -0.00597218
63.445 0.00959502
63.485 0.00887021
63.525 0.00272241
63.565 0.0290349
63.605 0.0109612
63.645 0.00146908
63.685 0.00080659
63.725 0.00111743
63.765 0.00847432
63.805 0.00288661
63.845 -0.00528825
63.885 0.004456
63.925 0.00115419
63.965 0.00167487
64.005 0.00270139
64.045 0.00809887
64.085 -0.0126375
64.125 -9.19879e-05
64.165 -0.0105682
64.205 0.00955447
64.245 -7.32643e-05
64.285 -0.000409479
64.325 0.00245178
64.365 0.00584367
64.405 -0.00739912
64.445 0.0121559
64.485 0.00791163
64.525 -0.0097725
64.565 -0.00650368
64.605 -0.00904168
64.645 0.00974033
64.685 -0.00553537
64.725 -0.0108186
64.765 -0.00323753
64.805 -0.00559269
64.845 -0.00472481
64.885 0.000416186
64.925 0.00338682
64.965 0.00172935
65.005 0.000607013
65.045 0.000803941
65.085 0.00560902
65.125 -0.00138145
65.165 -0.00325844
65.205 -0.00528138
65.245 -0.00210645
65.285 -0.0139214
65.325 0.00398597
65.365 -0.00810056
65.405 0.00453594
65.445 0.00636697
65.485 -0.00711208
65.525 0.00759707
65.565 0.00179952
65.605 -0.00285244
65.645 -0.000528661
65.685 -0.0125232
65.725 0.013603
65.765 0.0108479
65.805 0.00398334
65.845 0.0110039
65.885 0.0140222
65.925 0.0284757
65.965 0.0139316
66.005 0.0186146
66.045 0.0131506
66.085 0.0191799
66.125 0.0112905
66.165 0.024891
66.205 0.0453897
66.245 0.0487281
66.285 0.059729
66.325 0.0620856
66.365 0.11818
66.405 0.131883
66.445 0.160312
66.485 0.18022
66.525 0.192777
66.565 0.209461
66.605 0.214885
66.645 0.221646
66.685 0.194191
66.725 0.182585
66.765 0.170506
66.805 0.145948
66.845 0.142073
66.885 0.104671
66.925 0.0987914
66.965 0.0778276
67.005 0.0474679
67.045 0.0284482
67.085 0.0267758
67.125 0.0264521
67.165 0.0203932
67.205 0.0199789
67.245 0.0281425
67.285 0.0301323
67.325 0.0413282
67.365 0.0232477
67.405 0.0241717
67.445 0.0410864
67.485 0.0367181
67.525 0.0307896
67.565 0.0390784
67.605 0.0348752
67.645 0.0286916
67.685 0.0274217
67.725 0.0211258
67.765 0.0110679
67.805 -0.005622
67.845 0.00224993
67.885 0.00183445
67.925 0.0164118
67.965 0.0068994
68.005 -0.000530857
68.045 0.00565885
68.085 0.00198364
68.125 0.0102369
68.165 0.0086786
68.205 0.00538738
68.245 -0.00547709
68.285 0.0165966
68.325 0.0117825
68.365 -0.00246048
68.405 -0.00410449
68.445 0.00268779
68.485 0.0112656
68.525 -0.00755111
68.565 -0.0037757
68.605 -0.00405338
68.645 0.00794761
68.685 0.00715497
68.725 0.000308379
68.765 -0.00836292
68.805 0.000914973
68.845 -0.000932864
68.885 0.0160516
68.925 0.00324321
68.965 -0.00749722
69.005 0.00126729
69.045 0.00584533
69.085 0.00293332
69.125 0.0118047
69.165 0.00519354
69.205 -0.00258777
69.245 0.00628992
69.285 0.00436413
69.325 0.00177229
69.365 0.00389362
69.405 0.00592676
69.445 0.00235362
69.485 0.00974475
69.525 -0.00993344
69.565 0.00537419
69.605 0.00569818
69.645 -0.00314796
69.685 0.00113803
69.725 -0.00663311
69.765 0.00374052
69.805 -0.00444353
69.845 -0.00763571
69.885 -0.0104658
69.925 -0.00226569
69.96 -0.0132409