File: data/xrd/xy/2019-06-10T21_14_00.866379+00_00_LBL_B1.xy
'Id: "" Comment: "Integrate frame 06132019_dimethyl_ipropyl_01_002.gfrmwith cursor Wedge Cursor #1" Operator: "UC Berkeley" Anode: "Co" Scantype: "TwoTheta" TimePerStep: "480"
15.36 -0.028612
15.4 0.0117778
15.44 0.0437621
15.48 0.00335169
15.52 0.0284013
15.56 -0.0132947
15.6 0.088052
15.64 0.059132
15.68 0.0687573
15.72 0.0624545
15.76 0.0494042
15.8 0.0638249
15.84 0.0244229
15.88 0.0624812
15.92 0.00599802
15.96 0.0715769
16 0.0473741
16.04 0.0110992
16.08 0.0164218
16.12 0.0554105
16.16 0.0576134
16.2 0.0126038
16.24 0.0974615
16.28 0.0613757
16.32 0.0921016
16.36 0.0731294
16.4 0.0828417
16.44 0.0527231
16.48 0.0634809
16.52 0.058796
16.56 0.00856584
16.6 0.0414625
16.64 0.0316191
16.68 -0.000802452
16.72 0.0616238
16.76 0.0700657
16.8 0.0548084
16.84 0.0456658
16.88 0.04141
16.92 -0.00683614
16.96 0.0538335
17 0.0511183
17.04 0.0287682
17.08 0.00808576
17.12 0.0497858
17.16 0.0495106
17.2 -0.00787344
17.24 0.0310973
17.28 0.0315651
17.32 0.0498376
17.36 0.0215335
17.4 0.0190127
17.44 0.00554029
17.48 0.0335388
17.52 -0.0100404
17.56 0.0365643
17.6 0.0414313
17.64 0.0249764
17.68 0.039817
17.72 0.0410937
17.76 0.0557552
17.8 0.000727655
17.84 0.030663
17.88 0.0135183
17.92 0.0157351
17.96 0.0117366
18 0.0244256
18.04 0.0155681
18.08 0.0489012
18.12 0.048607
18.16 0.039043
18.2 0.0173155
18.24 0.0397628
18.28 0.0495053
18.32 0.105329
18.36 0.0819862
18.4 0.113514
18.44 0.0708416
18.48 0.146739
18.52 0.0745564
18.56 0.0362667
18.6 0.0862786
18.64 0.0457806
18.68 0.044263
18.72 0.0432818
18.76 0.0279285
18.8 0.0117616
18.84 0.0373573
18.88 0.0161422
18.92 0.00941246
18.96 0.0293448
19 0.0775456
19.04 0.0145197
19.08 0.00119116
19.12 0.0228744
19.16 0.022531
19.2 0.00647542
19.24 0.00900266
19.28 0.00140709
19.32 0.0307138
19.36 0.0161598
19.4 0.0296851
19.44 0.0502856
19.48 0.0251416
19.52 0.0606564
19.56 0.0138454
19.6 0.0478975
19.64 0.00283424
19.68 0.018474
19.72 0.0167325
19.76 -0.0261146
19.8 0.045101
19.84 0.0220996
19.88 0.0772126
19.92 0.0578325
19.96 0.0340874
20 0.000815839
20.04 0.0352602
20.08 0.0519127
20.12 0.0461604
20.16 0.0192439
20.2 0.0535953
20.24 0.0770503
20.28 0.0431907
20.32 0.0232377
20.36 0.0874128
20.4 0.0517771
20.44 -0.0153445
20.48 0.117159
20.52 0.0459045
20.56 0.0577135
20.6 0.020535
20.64 0.098361
20.68 0.0587453
20.72 0.0164722
20.76 0.0314406
20.8 0.028639
20.84 0.0172996
20.88 0.0658714
20.92 0.0586288
20.96 0.0663036
21 0.0257303
21.04 0.0360701
21.08 0.0568288
21.12 0.0510458
21.16 0.0565726
21.2 -0.0118238
21.24 0.0549601
21.28 0.070469
21.32 0.0254534
21.36 0.0050772
21.4 0.0709702
21.44 0.0609441
21.48 0.0509095
21.52 0.0297106
21.56 0.0824719
21.6 0.0494408
21.64 0.0264077
21.68 -0.0230592
21.72 0.0383876
21.76 0.059357
21.8 0.0694548
21.84 0.0144917
21.88 0.0164335
21.92 0.0590743
21.96 0.0113819
22 0.0884265
22.04 0.0280357
22.08 -0.0221426
22.12 0.0344188
22.16 0.0512253
22.2 0.0890878
22.24 -0.000217354
22.28 0.00379147
22.32 0.0763141
22.36 0.0159832
22.4 0.0845995
22.44 0.0716114
22.48 0.0469053
22.52 -0.0282556
22.56 0.0397378
22.6 0.0589624
22.64 0.0765381
22.68 0.0399122
22.72 0.042513
22.76 0.0352873
22.8 0.0802955
22.84 0.0590044
22.88 0.0438673
22.92 0.0447499
22.96 0.0649031
23 0.0578399
23.04 0.0916796
23.08 0.0147925
23.12 0.0283329
23.16 0.0663432
23.2 0.0722004
23.24 0.0749102
23.28 0.101491
23.32 0.176071
23.36 0.288368
23.4 0.357196
23.44 0.63443
23.48 0.821183
23.52 0.935183
23.56 0.854564
23.6 0.644825
23.64 0.372599
23.68 0.200361
23.72 0.135853
23.76 0.081901
23.8 0.0547844
23.84 0.0683747
23.88 0.00539301
23.92 0.082543
23.96 0.00539517
24 0.0352087
24.04 0.016574
24.08 0.0315046
24.12 0.049236
24.16 0.00914855
24.2 0.040261
24.24 0.0320437
24.28 0.076461
24.32 0.0179578
24.36 0.00529973
24.4 0.0217651
24.44 0.00146826
24.48 0.0386875
24.52 0.0205385
24.56 0.0258022
24.6 0.00223097
24.64 0.0455272
24.68 0.0532781
24.72 0.0341414
24.76 -0.00308572
24.8 0.0186332
24.84 0.0465303
24.88 0.0465805
24.92 0.016117
24.96 -0.000938428
25 0.0277855
25.04 0.0472644
25.08 0.0412805
25.12 0.061325
25.16 0.101477
25.2 0.0868757
25.24 0.0949751
25.28 0.0187
25.32 0.0263201
25.36 0.0358086
25.4 0.00474457
25.44 -0.0131949
25.48 0.0482183
25.52 0.0233575
25.56 0.0704872
25.6 0.0332541
25.64 0.0141522
25.68 0.0313791
25.72 -0.0127693
25.76 0.0376542
25.8 0.0734087
25.84 0.0400122
25.88 0.00598073
25.92 0.00460357
25.96 0.0692119
26 0.024782
26.04 0.0648262
26.08 0.0330158
26.12 0.0436314
26.16 0.0498133
26.2 0.0308101
26.24 0.0463853
26.28 0.00775157
26.32 0.0169289
26.36 0.0288594
26.4 0.0149519
26.44 0.0518152
26.48 0.0363545
26.52 0.0615032
26.56 0.0478206
26.6 0.0640717
26.64 0.0806544
26.68 0.0346669
26.72 0.0223532
26.76 -0.016988
26.8 0.0700738
26.84 0.0701523
26.88 0.00745326
26.92 0.0445806
26.96 0.0289901
27 0.0777057
27.04 0.0548479
27.08 0.0280936
27.12 0.0356247
27.16 0.00139328
27.2 0.0692066
27.24 0.05838
27.28 0.0785646
27.32 0.0217201
27.36 -0.0274194
27.4 0.052139
27.44 0.0059512
27.48 0.0250634
27.52 0.0125676
27.56 0.0224575
27.6 0.0151885
27.64 0.0379452
27.68 0.0120611
27.72 -0.0142718
27.76 0.00855526
27.8 0.0288183
27.84 0.0534571
27.88 0.0440104
27.92 0.0400021
27.96 0.0376161
28 0.0311846
28.04 0.0311066
28.08 0.0363573
28.12 -0.0113984
28.16 0.0361902
28.2 0.0201272
28.24 0.0183272
28.28 0.0321538
28.32 0.0861063
28.36 0.0506942
28.4 0.0126768
28.44 -0.0203175
28.48 0.0237758
28.52 0.016392
28.56 0.055952
28.6 0.120345
28.64 0.176223
28.68 0.225673
28.72 0.228636
28.76 0.14993
28.8 0.110059
28.84 0.129714
28.88 0.032865
28.92 0.0530167
28.96 0.0648917
29 -0.00626459
29.04 0.0140356
29.08 0.0114421
29.12 0.0411081
29.16 0.0479187
29.2 0.00819112
29.24 0.0375698
29.28 0.0366198
29.32 0.0228584
29.36 0.0316391
29.4 0.00599498
29.44 0.0475606
29.48 0.0254009
29.52 0.0281795
29.56 0.0176929
29.6 0.0402183
29.64 0.0792941
29.68 0.0541559
29.72 0.0647514
29.76 0.0832855
29.8 0.182885
29.84 0.255139
29.88 0.423439
29.92 0.701082
29.96 1.29223
30 2.16884
30.04 2.96046
30.08 3.20311
30.12 2.92073
30.16 2.27517
30.2 1.50251
30.24 0.761132
30.28 0.425451
30.32 0.276289
30.36 0.148855
30.4 0.112753
30.44 0.0381211
30.48 0.0486507
30.52 0.0667585
30.56 0.0537678
30.6 0.0158628
30.64 0.0211228
30.68 0.0153975
30.72 0.0307788
30.76 0.008769
30.8 0.0201897
30.84 0.0264975
30.88 0.0347903
30.92 0.0290349
30.96 0.00238023
31 0.0215556
31.04 0.0108855
31.08 0.0193333
31.12 0.0499067
31.16 0.0168121
31.2 0.0366021
31.24 0.0383204
31.28 0.0385461
31.32 0.0291445
31.36 -0.0254922
31.4 0.0733897
31.44 0.0265286
31.48 0.0774643
31.52 0.0213395
31.56 0.0252752
31.6 0.0314154
31.64 0.0222215
31.68 0.0096543
31.72 0.00923526
31.76 0.0418968
31.8 0.0631981
31.84 0.0119637
31.88 0.0110451
31.92 0.0266756
31.96 -0.00747154
32 -0.010611
32.04 0.0283841
32.08 -0.00868058
32.12 0.0304733
32.16 0.0210144
32.2 0.0238104
32.24 0.00521713
32.28 0.0127178
32.32 0.0177529
32.36 0.00481435
32.4 0.0123362
32.44 0.0284823
32.48 0.0249653
32.52 0.0483379
32.56 -0.00761137
32.6 0.00433847
32.64 0.00928716
32.68 0.0294114
32.72 0.0271008
32.76 0.0305889
32.8 0.043594
32.84 0.0106368
32.88 -0.00332553
32.92 0.00426362
32.96 0.016211
33 -0.0157189
33.04 0.0177341
33.08 -0.00564845
33.12 0.00964708
33.16 0.00504368
33.2 0.0166504
33.24 0.0289379
33.28 -0.00613624
33.32 0.0239007
33.36 0.0176469
33.4 0.00993278
33.44 -0.0117067
33.48 -0.0147712
33.52 -0.00432366
33.56 0.0142746
33.6 0.0274537
33.64 -0.001944
33.68 0.0159522
33.72 0.00839075
33.76 0.0113361
33.8 0.0360594
33.84 0.0132837
33.88 -0.0159865
33.92 0.0149611
33.96 0.0332212
34 0.00953455
34.04 0.0211214
34.08 0.0236454
34.12 -0.0246678
34.16 0.00741378
34.2 0.0133437
34.24 0.00177459
34.28 0.0129117
34.32 0.0161369
34.36 0.0285688
34.4 0.0258563
34.44 0.0667981
34.48 0.0420186
34.52 0.0940061
34.56 0.151311
34.6 0.263293
34.64 0.397722
34.68 0.572414
34.72 0.725473
34.76 0.838684
34.8 0.830227
34.84 0.708671
34.88 0.530564
34.92 0.342369
34.96 0.215487
35 0.123076
35.04 0.0734598
35.08 0.0423241
35.12 0.0277385
35.16 0.0166185
35.2 0.0238271
35.24 0.0046725
35.28 -0.0028723
35.32 -0.0129039
35.36 -0.0126225
35.4 -0.00371653
35.44 -0.00178938
35.48 0.00557497
35.52 -0.0071606
35.56 0.00610141
35.6 0.00707082
35.64 -0.014765
35.68 0.00223589
35.72 0.0137362
35.76 0.00586915
35.8 0.034582
35.84 0.0424472
35.88 0.058912
35.92 0.0621222
35.96 0.0972568
36 0.148887
36.04 0.270189
36.08 0.474639
36.12 0.785525
36.16 1.2572
36.2 1.83847
36.24 2.42498
36.28 2.82945
36.32 2.85023
36.36 2.51513
36.4 1.86986
36.44 1.21406
36.48 0.697471
36.52 0.422496
36.56 0.223091
36.6 0.135073
36.64 0.0821473
36.68 0.026574
36.72 0.0305289
36.76 -0.00112086
36.8 0.00836129
36.84 -0.00429706
36.88 0.00106217
36.92 -0.000390053
36.96 -0.0140262
37 0.00751637
37.04 0.0120317
37.08 0.00950035
37.12 0.0343223
37.16 0.041901
37.2 0.116879
37.24 0.118772
37.28 0.197984
37.32 0.343533
37.36 0.476889
37.4 0.603406
37.44 0.725152
37.48 0.753259
37.52 0.699867
37.56 0.58307
37.6 0.405482
37.64 0.290953
37.68 0.185887
37.72 0.0816106
37.76 0.0582045
37.8 0.0498913
37.84 0.0213688
37.88 0.00701933
37.92 0.00239805
37.96 -0.0103725
38 -0.000905861
38.04 0.00515284
38.08 -0.0252416
38.12 -0.00645611
38.16 0.0213449
38.2 0.016529
38.24 -0.000133497
38.28 0.00143668
38.32 0.0344387
38.36 0.0670365
38.4 0.0830688
38.44 0.156372
38.48 0.220241
38.52 0.27951
38.56 0.33626
38.6 0.286907
38.64 0.255336
38.68 0.193881
38.72 0.117399
38.76 0.0758693
38.8 0.0309015
38.84 0.0325835
38.88 -0.0245014
38.92 0.0215375
38.96 0.0273241
39 0.0286588
39.04 0.0117093
39.08 0.00779272
39.12 0.0059884
39.16 0.00472593
39.2 0.0205252
39.24 0.019809
39.28 0.0401387
39.32 0.0241483
39.36 0.0181958
39.4 0.0177539
39.44 0.011367
39.48 0.0110037
39.52 0.00389569
39.56 0.0327782
39.6 0.00590544
39.64 0.0188121
39.68 0.00942562
39.72 -0.00363503
39.76 -0.000395414
39.8 0.0232613
39.84 0.0138952
39.88 0.0202941
39.92 0.0105304
39.96 0.0365706
40 0.0156064
40.04 0.00612248
40.08 0.00783778
40.12 0.00947945
40.16 0.00327438
40.2 0.0108485
40.24 -0.0224658
40.28 0.0118908
40.32 0.0123812
40.36 0.0250888
40.4 0.0173578
40.44 0.00154066
40.48 0.00435073
40.52 -0.00653714
40.56 0.0225602
40.6 0.0268999
40.64 0.0209054
40.68 0.0315448
40.72 0.0726971
40.76 0.0274649
40.8 0.0307772
40.84 0.0357098
40.88 0.00267818
40.92 0.0057997
40.96 0.0117337
41 0.0187451
41.04 0.0249124
41.08 0.0154702
41.12 0.0380823
41.16 0.0654801
41.2 0.115035
41.24 0.171245
41.28 0.268891
41.32 0.340521
41.36 0.361112
41.4 0.36972
41.44 0.359405
41.48 0.261876
41.52 0.188841
41.56 0.120352
41.6 0.0807732
41.64 0.0709571
41.68 0.00940601
41.72 0.0096811
41.76 -0.00384598
41.8 0.00490095
41.84 0.00995842
41.88 -0.0144744
41.92 0.0102415
41.96 0.0170268
42 0.0106415
42.04 0.0176357
42.08 0.00513065
42.12 0.00145601
42.16 -0.00393754
42.2 0.0144476
42.24 -0.0123377
42.28 0.0129898
42.32 0.0117681
42.36 0.00043145
42.4 0.0204651
42.44 0.0154499
42.48 0.0124008
42.52 0.0232115
42.56 0.0248163
42.6 0.00143326
42.64 0.00681273
42.68 0.00496415
42.72 -0.0138905
42.76 -0.0105694
42.8 0.00729593
42.84 0.0153683
42.88 0.00140249
42.92 0.0127642
42.96 0.0265265
43 -0.0133276
43.04 0.00341365
43.08 -0.0227271
43.12 0.0166668
43.16 2.53538e-05
43.2 0.00372698
43.24 0.0105721
43.28 0.00886653
43.32 0.0125809
43.36 0.00694949
43.4 -0.014486
43.44 0.0237548
43.48 0.00896323
43.52 0.00322456
43.56 0.00170441
43.6 0.000206301
43.64 0.0169011
43.68 -0.000834339
43.72 -0.00912344
43.76 0.00442466
43.8 0.0175058
43.84 -0.0147974
43.88 -0.0113452
43.92 0.0146546
43.96 -0.00181887
44 0.0121894
44.04 -0.00550853
44.08 0.00511709
44.12 0.0259098
44.16 -0.00959495
44.2 -0.00386111
44.24 0.0250896
44.28 0.0147687
44.32 0.0466968
44.36 0.0195026
44.4 0.0189861
44.44 0.0520874
44.48 0.0411278
44.52 0.0686382
44.56 0.104976
44.6 0.161191
44.64 0.23858
44.68 0.252819
44.72 0.277363
44.76 0.293425
44.8 0.228758
44.84 0.19039
44.88 0.161444
44.92 0.150373
44.96 0.0732114
45 0.0312476
45.04 0.0398534
45.08 -0.00918753
45.12 -0.0027542
45.16 0.0114681
45.2 0.00571474
45.24 0.0350994
45.28 -0.0017916
45.32 -0.0149274
45.36 -0.0140823
45.4 0.0407538
45.44 0.0115454
45.48 0.0256345
45.52 0.00516159
45.56 -0.00116407
45.6 0.0364556
45.64 -0.0143419
45.68 -0.00489131
45.72 -0.00551266
45.76 0.00371959
45.8 0.0171852
45.84 0.0231567
45.88 -0.0224753
45.92 -0.00166374
45.96 -0.00977791
46 -0.00706467
46.04 -0.00906462
46.08 0.0153302
46.12 0.0417173
46.16 -0.0120048
46.2 0.00974993
46.24 0.00919222
46.28 0.0085498
46.32 -0.00892447
46.36 0.00324797
46.4 0.00410388
46.44 0.00662113
46.48 -0.0178328
46.52 -0.0110648
46.56 -0.0139787
46.6 0.0156943
46.64 0.017423
46.68 0.00423128
46.72 0.00505454
46.76 -0.0114968
46.8 -0.0230811
46.84 0.0109695
46.88 -0.00172378
46.92 -0.0128115
46.96 0.00107904
47 -0.007506
47.04 -0.000330372
47.08 -0.00585012
47.12 -0.0122105
47.16 -0.0108262
47.2 0.00872323
47.24 0.00908852
47.28 0.0590558
47.32 0.0305085
47.36 0.0689461
47.4 0.091187
47.44 0.119254
47.48 0.161982
47.52 0.144757
47.56 0.188394
47.6 0.219979
47.64 0.224852
47.68 0.263441
47.72 0.257741
47.76 0.259203
47.8 0.288863
47.84 0.429444
47.88 0.723238
47.92 1.14978
47.96 1.65413
48 1.92242
48.04 2.13675
48.08 2.21273
48.12 2.30163
48.16 2.34323
48.2 2.21359
48.24 2.0086
48.28 1.68121
48.32 1.23859
48.36 0.862404
48.4 0.596948
48.44 0.328589
48.48 0.242687
48.52 0.142786
48.56 0.103485
48.6 0.098486
48.64 0.0520764
48.68 0.0185751
48.72 0.0418699
48.76 0.0532702
48.8 0.0668208
48.84 0.0709426
48.88 0.144242
48.92 0.182119
48.96 0.216005
49 0.232099
49.04 0.300954
49.08 0.293818
49.12 0.290132
49.16 0.277143
49.2 0.206867
49.24 0.172355
49.28 0.12753
49.32 0.0795479
49.36 0.0548961
49.4 0.0268583
49.44 0.00458182
49.48 -0.0204658
49.52 -0.0171679
49.56 -0.00708362
49.6 -0.00599909
49.64 -0.0197785
49.68 0.00219059
49.72 -0.0101118
49.76 0.0103781
49.8 0.024483
49.84 0.0436848
49.88 0.0529531
49.92 0.0962596
49.96 0.151444
50 0.246647
50.04 0.3842
50.08 0.559047
50.12 0.695821
50.16 0.837255
50.2 0.903814
50.24 0.906809
50.28 0.93613
50.32 0.84854
50.36 0.763244
50.4 0.650051
50.44 0.508441
50.48 0.39015
50.52 0.244141
50.56 0.136194
50.6 0.0749153
50.64 0.0619626
50.68 0.0289148
50.72 0.0178
50.76 0.00456847
50.8 0.0110271
50.84 0.0172446
50.88 0.00837921
50.92 -0.00932026
50.96 0.0101525
51 -0.00736798
51.04 -0.0187644
51.08 0.00154282
51.12 -0.0131487
51.16 -0.0149481
51.2 -0.00212801
51.24 -0.00872556
51.28 -0.000486661
51.32 -0.00107315
51.36 -0.000564152
51.4 -0.0149832
51.44 0.0122229
51.48 -0.00678652
51.52 0.0132125
51.56 0.0137414
51.6 0.0436459
51.64 0.0450184
51.68 0.0722896
51.72 0.0928955
51.76 0.129783
51.8 0.132947
51.84 0.193369
51.88 0.211816
51.92 0.23293
51.96 0.275622
52 0.237495
52.04 0.244576
52.08 0.231438
52.12 0.224927
52.16 0.155398
52.2 0.115526
52.24 0.0831777
52.28 0.0409444
52.32 0.0362963
52.36 0.00921273
52.4 -0.00670868
52.44 -0.0149661
52.48 0.00542665
52.52 -0.00864954
52.56 -0.0117217
52.6 0.000595217
52.64 -0.0139745
52.68 -0.00467478
52.72 -0.000354293
52.76 0.0051204
52.8 0.00954737
52.84 -0.000119742
52.88 -0.0121686
52.92 -0.00838709
52.96 -0.0140557
53 -0.00499717
53.04 0.00654165
53.08 -0.00737974
53.12 -0.00160668
53.16 -0.00175102
53.2 -0.00169921
53.24 0.00663366
53.28 -0.0162499
53.32 0.0209283
53.36 0.00521704
53.4 0.00961581
53.44 0.00463251
53.48 0.0213614
53.52 0.044948
53.56 0.0641222
53.6 0.102437
53.64 0.106898
53.68 0.105348
53.72 0.124921
53.76 0.141814
53.8 0.125314
53.84 0.109927
53.88 0.0923723
53.92 0.0950641
53.96 0.0550466
54 0.0659784
54.04 0.0339663
54.08 0.0125044
54.12 0.00724627
54.16 0.00115807
54.2 0.00990794
54.24 -0.00992084
54.28 -0.000263302
54.32 -0.0171723
54.36 -0.0101957
54.4 0.00238163
54.44 0.0157832
54.48 -0.00471624
54.52 0.00739075
54.56 -0.00789082
54.6 0.0270436
54.64 -0.00832419
54.68 -0.0022751
54.72 -0.00410925
54.76 -0.00987811
54.8 0.0070803
54.84 0.0082568
54.88 0.00156913
54.92 0.0192662
54.96 0.00861036
55 0.034119
55.04 0.0352787
55.08 0.0490462
55.12 0.0404315
55.16 0.0267469
55.2 0.0304034
55.24 0.0266545
55.28 0.0268069
55.32 0.0189954
55.36 0.0093094
55.4 0.0142712
55.44 -0.000785159
55.48 0.000588016
55.52 0.00882851
55.56 0.0095912
55.6 -0.00570989
55.64 0.00233457
55.68 0.012866
55.72 0.0278086
55.76 0.0128171
55.8 0.02534
55.84 0.00364334
55.88 0.000459058
55.92 0.00417581
55.96 0.0190376
56 0.0153631
56.04 0.0115096
56.08 0.00123809
56.12 0.00712088
56.16 0.0159813
56.2 0.0145517
56.24 0.0112828
56.28 0.00173995
56.32 0.0167897
56.36 0.0246484
56.4 0.0197671
56.44 0.0143547
56.48 0.0275261
56.52 -0.0200503
56.56 0.0177466
56.6 0.0145719
56.64 -0.0132235
56.68 0.00900149
56.72 0.00468277
56.76 0.0323718
56.8 0.0499045
56.84 0.0451327
56.88 0.0544718
56.92 0.0781979
56.96 0.109352
57 0.0916836
57.04 0.112624
57.08 0.0856598
57.12 0.10464
57.16 0.0751714
57.2 0.0857023
57.24 0.0617578
57.28 0.0586369
57.32 0.0407608
57.36 0.041339
57.4 0.0463549
57.44 0.0593371
57.48 0.0594663
57.52 0.0903712
57.56 0.136947
57.6 0.207367
57.64 0.270115
57.68 0.365427
57.72 0.429554
57.76 0.466915
57.8 0.516433
57.84 0.498599
57.88 0.524449
57.92 0.511583
57.96 0.45975
58 0.418841
58.04 0.365439
58.08 0.245835
58.12 0.212641
58.16 0.144306
58.2 0.100925
58.24 0.0521114
58.28 0.0247061
58.32 0.0277571
58.36 0.000964518
58.4 0.00362089
58.44 0.0128782
58.48 0.0070891
58.52 0.0163749
58.56 0.0103462
58.6 -0.00480046
58.64 0.0109422
58.68 -0.00621071
58.72 0.00968594
58.76 -0.0131745
58.8 -0.00356588
58.84 0.0212127
58.88 0.00797327
58.92 0.0250678
58.96 0.00797152
59 0.00864982
59.04 -0.000986445
59.08 0.0211832
59.12 0.0234564
59.16 0.0144606
59.2 0.00424622
59.24 0.00364515
59.28 0.00888659
59.32 0.00462845
59.36 -0.00487037
59.4 -0.00387287
59.44 -0.00542506
59.48 -0.00845353
59.52 0.0165033
59.56 0.0137768
59.6 0.0192371
59.64 -0.00942801
59.68 -0.00917038
59.72 0.0221403
59.76 0.0304266
59.8 -0.0194823
59.84 0.0191326
59.88 0.0334359
59.92 0.00587864
59.96 0.00528907
60 0.0205645
60.04 0.0294462
60.08 0.0182364
60.12 -0.00734624
60.16 -0.00383187
60.2 0.00636063
60.24 0.0151371
60.28 0.0161419
60.32 0.0129082
60.36 -0.00866884
60.4 0.0127385
60.44 -0.00529442
60.48 0.00174093
60.52 0.00955382
60.56 0.0259844
60.6 -0.0118049
60.64 -0.00128095
60.68 0.00528697
60.72 0.00120786
60.76 0.0129015
60.8 0.020843
60.84 0.00120607
60.88 -0.00147664
60.92 0.0120714
60.96 0.0105872
61 0.0246653
61.04 -0.0142525
61.08 -0.000262769
61.12 -0.0110705
61.16 0.0144545
61.2 -0.0103088
61.24 0.021149
61.28 0.0192626
61.32 -0.0022378
61.36 0.0209669
61.4 0.0301929
61.44 0.0522598
61.48 0.0631225
61.52 0.0946597
61.56 0.11797
61.6 0.188457
61.64 0.243095
61.68 0.266091
61.72 0.316909
61.76 0.282939
61.8 0.305832
61.84 0.281774
61.88 0.253502
61.92 0.249296
61.96 0.201896
62 0.191155
62.04 0.137261
62.08 0.109073
62.12 0.0799332
62.16 0.0740317
62.2 0.0724249
62.24 0.0948246
62.28 0.0745177
62.32 0.123658
62.36 0.159
62.4 0.167812
62.44 0.201366
62.48 0.218279
62.52 0.237171
62.56 0.23991
62.6 0.289876
62.64 0.287494
62.68 0.277034
62.72 0.251186
62.76 0.251327
62.8 0.176739
62.84 0.116189
62.88 0.0893492
62.92 0.0564746
62.96 0.0609063
63 0.0324026
63.04 0.0400368
63.08 0.0237655
63.12 -0.0134817
63.16 0.0200105
63.2 0.0233525
63.24 0.0181382
63.28 -0.000506045
63.32 0.0174129
63.36 0.01781
63.4 0.0122165
63.44 0.00875512
63.48 0.00454053
63.52 0.00569417
63.56 0.00796324
63.6 0.000705644
63.64 0.00909478
63.68 0.00396331
63.72 -0.00102192
63.76 -0.0022225
63.8 0.0129043
63.84 -0.00470352
63.88 -0.00247929
63.92 0.0136723
63.96 0.0157716
64 -0.00467656
64.04 0.00410284
64.08 -0.00436069
64.12 0.00241434
64.16 -0.0153957
64.2 -0.00834358
64.24 0.0015969
64.28 0.00522576
64.32 0.0109724
64.36 -0.0112614
64.4 -0.00576452
64.44 0.00464343
64.48 0.0127361
64.52 0.0240289
64.56 0.0306024
64.6 0.0413982
64.64 0.0395624
64.68 0.0462612
64.72 0.0482396
64.76 0.0433406
64.8 0.0569769
64.84 0.082648
64.88 0.094973
64.92 0.10329
64.96 0.101519
65 0.113133
65.04 0.077789
65.08 0.0845321
65.12 0.0710339
65.16 0.0670865
65.2 0.0683037
65.24 0.0521967
65.28 0.0336859
65.32 0.0371652
65.36 0.0401186
65.4 0.0314321
65.44 0.040565
65.48 0.0363348
65.52 0.00897382
65.56 0.00388949
65.6 0.028478
65.64 0.0253456
65.68 0.00900486
65.72 -0.00637362
65.76 0.0215452
65.8 -0.000426626
65.84 0.00228039
65.88 0.00358228
65.92 0.00453367
65.96 0.017978
66 -0.0145828
66.04 0.00114776
66.08 -0.00446443
66.12 -0.00441623
66.16 -0.00150329
66.2 0.0079473
66.24 0.000257273
66.28 0.0113364
66.32 0.0110314
66.36 0.0079246
66.4 -0.0134204
66.44 -0.00164735
66.48 0.0293334
66.52 0.0220975
66.56 0.0104176
66.6 0.00568893
66.64 -0.0094209
66.68 0.0120525
66.72 0.00747421
66.76 0.00896821
66.8 0.0145604
66.84 0.0135995
66.88 0.00482561
66.92 -0.00547136
66.96 -0.00596334
67 0.00401425
67.04 0.0120277
67.08 -0.0103642
67.12 0.0153406
67.16 -0.00993569
67.2 0.0186453
67.24 -0.00331099
67.28 0.00809491
67.32 -0.0126076
67.36 0.0111328
67.4 0.0310247
67.44 0.000968221
67.48 -0.00932162
67.52 0.0219206
67.56 0.0456908
67.6 0.0262544
67.64 0.0479021
67.68 0.0706864
67.72 0.0634164
67.76 0.0688464
67.8 0.0768705
67.84 0.078752
67.88 0.08515
67.92 0.0878592
67.96 0.0865745
68 0.0751413
68.04 0.0500622
68.08 0.0310414
68.12 0.0250707
68.16 0.0367618
68.2 0.0217588
68.24 0.053444
68.28 0.0191126
68.32 0.00367049
68.36 0.00539753
68.4 -0.00147128
68.44 -0.00412813
68.48 0.0102976
68.52 -0.00744195
68.56 -0.0021322
68.6 0.0174495
68.64 0.000760814
68.68 0.00852389
68.72 -0.00695884
68.76 -0.00855341
68.8 0.00119538
68.84 -0.00997552
68.88 0.0173825
68.92 0.0210981
68.96 0.00823181
69 0.0136032
69.04 -0.00447239
69.08 0.0293942
69.12 -0.0100923
69.16 0.0267809
69.2 0.0225488
69.24 0.013866
69.28 0.0256562
69.32 0.0206051
69.36 0.00495906
69.4 0.00917977
69.44 0.00965723
69.48 0.027815
69.52 0.00916633
69.56 0.0302558
69.6 0.00521561
69.64 0.00382242
69.68 -0.00469314
69.72 -0.0101418
69.76 0.0163519
69.8 0.0183726
69.84 0.0207763
69.88 0.0249555
69.92 0.0105257
69.96 0.0166736
70 0.0508174
70.04 0.0293124
70.08 0.0262744
70.12 0.0430844
70.16 0.0238645
70.2 0.0139407
70.24 0.0214292
70.28 0.0165732
70.32 0.0367159
70.36 0.0208962
70.4 0.00847373
70.44 0.00105628
70.48 0.0170627
70.52 0.0132097
70.56 -0.00186203
70.6 0.0269191
70.64 -0.00467016
70.68 0.000718503
70.72 0.019469
70.76 0.0173991
70.8 0.0468141
70.84 0.0656146
70.88 0.100091
70.92 0.145851
70.96 0.159913
71 0.198172
71.04 0.210768
71.08 0.254454
71.12 0.261521
71.16 0.251952
71.2 0.284418
71.24 0.289907
71.28 0.292887
71.32 0.308755
71.36 0.279964
71.4 0.276465
71.44 0.234296
71.48 0.222878
71.52 0.166548
71.56 0.161713
71.6 0.126537
71.64 0.105685
71.68 0.056373
71.72 0.0558152
71.76 0.0365591
71.8 0.0110531
71.84 0.0232919
71.88 0.00919774
71.92 0.0148846
71.96 0.0074406
72 0.0159116
72.04 0.0102308
72.08 0.00188448
72.12 0.00764498
72.16 0.0233384
72.2 0.0179246
72.24 0.0300863
72.28 0.0122822
72.32 0.0207927
72.36 0.00706035
72.4 0.0239057
72.44 0.0176427
72.48 -0.00204978
72.52 0.00775512
72.56 -0.000432817
72.6 0.00228418
72.64 0.00684175
72.68 0.0224934
72.72 -0.0179132
72.76 0.00533972
72.8 0.000906026
72.84 0.00571238
72.88 -0.0183113
72.92 -0.00893434
72.945 -0.0190484