File: data/xrd/xy/2019-05-29T19_56_50.129046+00_00_LBL_E2.xy
'Id: "" Comment: "Integrate frame 4Fluorophenyl_04_002.gfrmwith cursor Wedge Cursor #4" Operator: "UC Berkeley" Anode: "Co" Scantype: "TwoTheta" TimePerStep: "600"
14.43 -0.0275238
14.465 0.00609281
14.5 0.02601
14.535 0.0186068
14.57 0.0263779
14.605 0.0233742
14.64 0.0396364
14.675 0.0552668
14.71 0.0353591
14.745 0.0288518
14.78 0.0667748
14.815 0.0451321
14.85 0.0509126
14.885 0.0555199
14.92 0.041333
14.955 0.0536497
14.99 0.0458528
15.025 0.0325305
15.06 0.0233189
15.095 0.030301
15.13 0.0428047
15.165 0.0482318
15.2 0.0326905
15.235 0.0522661
15.27 0.025856
15.305 0.0681463
15.34 0.0529866
15.375 0.0442489
15.41 0.0484335
15.445 0.0325888
15.48 0.0277682
15.515 0.0566759
15.55 0.0633758
15.585 0.0388445
15.62 0.0504813
15.655 0.0551906
15.69 0.0939197
15.725 0.0245859
15.76 0.0179319
15.795 0.0449867
15.83 0.0204034
15.865 0.000487297
15.9 0.0015918
15.935 0.0371791
15.97 0.0366051
16.005 0.0206613
16.04 -0.00406349
16.075 0.0125286
16.11 0.00335965
16.145 0.0415329
16.18 0.0140452
16.215 0.0111645
16.25 0.00830006
16.285 0.0199868
16.32 0.0207135
16.355 0.0166883
16.39 -0.00382165
16.425 -0.0177895
16.46 0.00833772
16.495 -0.00695732
16.53 -0.0207136
16.565 0.0227442
16.6 -0.018895
16.635 0.0326224
16.67 0.00609833
16.705 0.0102535
16.74 -0.000242076
16.775 0.0375458
16.81 0.038261
16.845 0.0407489
16.88 0.0137056
16.915 0.019356
16.95 0.0132071
16.985 -0.00505207
17.02 0.00274892
17.055 0.0286178
17.09 0.00602057
17.125 0.0187569
17.16 0.0462352
17.195 0.0429735
17.23 0.065415
17.265 0.0177523
17.3 0.0629753
17.335 0.00837421
17.37 0.0455878
17.405 0.0267494
17.44 -0.0091252
17.475 0.00850046
17.51 0.0226924
17.545 -0.0191139
17.58 0.0150444
17.615 0.0122384
17.65 0.00828046
17.685 0.039658
17.72 -0.00528167
17.755 0.0108323
17.79 -0.0156965
17.825 0.0239999
17.86 0.00981815
17.895 0.0493317
17.93 0.026671
17.965 0.0286761
18 0.0248551
18.035 -0.00567135
18.07 0.0245132
18.105 0.00298781
18.14 0.0489254
18.175 0.0045971
18.21 0.00284421
18.245 -0.00915762
18.28 -0.0257909
18.315 0.0321291
18.35 0.0125318
18.385 0.0539172
18.42 0.0142419
18.455 0.026854
18.49 0.00931069
18.525 0.0487606
18.56 0.0443665
18.595 0.0387141
18.63 0.0645466
18.665 0.0213905
18.7 0.0416907
18.735 0.036094
18.77 0.0318507
18.805 0.0168788
18.84 0.0212442
18.875 0.0394409
18.91 0.0361923
18.945 0.0363512
18.98 0.0389504
19.015 0.0223983
19.05 0.00676178
19.085 0.0324985
19.12 0.0163695
19.155 0.0446549
19.19 0.0272649
19.225 0.060394
19.26 0.00109205
19.295 -0.00339759
19.33 -0.00347075
19.365 0.00629429
19.4 0.000564412
19.435 0.0241961
19.47 0.0240658
19.505 0.0226809
19.54 0.020271
19.575 0.0119175
19.61 0.0142967
19.645 0.016804
19.68 -0.00230296
19.715 0.0052454
19.75 0.00742457
19.785 -0.0232907
19.82 -0.00531109
19.855 0.00618344
19.89 0.0347131
19.925 0.0110393
19.96 0.0230319
19.995 -0.00627419
20.03 -0.000306889
20.065 0.0281831
20.1 -0.0140224
20.135 -0.0224011
20.17 0.0137725
20.205 0.0100992
20.24 0.0230792
20.275 0.00432652
20.31 -0.0113071
20.345 0.00681554
20.38 -0.001681
20.415 0.0382338
20.45 0.0245742
20.485 0.0310504
20.52 0.0514302
20.555 0.0177726
20.59 0.0288209
20.625 0.00710763
20.66 0.0226807
20.695 0.0185404
20.73 -0.00936774
20.765 -0.00204612
20.8 0.0197045
20.835 -0.0161399
20.87 0.0110641
20.905 -0.0109461
20.94 0.0085271
20.975 -0.0149194
21.01 0.00863238
21.045 0.00749509
21.08 0.016632
21.115 0.00048657
21.15 0.021082
21.185 0.00266507
21.22 0.0105182
21.255 -0.0157928
21.29 0.0261208
21.325 0.011364
21.36 0.0114198
21.395 0.0294517
21.43 -0.00276312
21.465 0.0128932
21.5 -0.0150439
21.535 0.0204172
21.57 0.0370248
21.605 0.0334546
21.64 -0.00923695
21.675 -0.0135768
21.71 0.0118171
21.745 0.0169648
21.78 0.0119929
21.815 0.0191236
21.85 0.00753804
21.885 0.00353355
21.92 0.0448185
21.955 0.0173524
21.99 0.0421782
22.025 0.00542531
22.06 -0.0123587
22.095 -0.00168728
22.13 0.0131682
22.165 0.0286644
22.2 0.0205234
22.235 0.0170951
22.27 0.00904513
22.305 0.00781419
22.34 0.00756649
22.375 0.0227864
22.41 -0.000166472
22.445 0.0451388
22.48 0.0319768
22.515 0.0401296
22.55 0.0444773
22.585 -0.00744851
22.62 0.0275093
22.655 0.0210409
22.69 -0.0101704
22.725 -0.00662247
22.76 0.0205319
22.795 0.000761429
22.83 0.0153978
22.865 0.0274699
22.9 0.0139902
22.935 0.013834
22.97 0.0420008
23.005 0.0291824
23.04 -0.00721157
23.075 0.0218355
23.11 0.013703
23.145 -0.0182378
23.18 0.0101597
23.215 -0.0111269
23.25 0.0149335
23.285 -0.0217761
23.32 0.00879414
23.355 0.0115202
23.39 0.0023322
23.425 -0.0133341
23.46 0.00616026
23.495 0.0443744
23.53 0.0350862
23.565 0.0365766
23.6 0.00665399
23.635 0.0680453
23.67 0.0513396
23.705 0.0473775
23.74 0.0280773
23.775 0.0490143
23.81 -0.00605708
23.845 0.00754817
23.88 0.0233104
23.915 0.048411
23.95 0.0103906
23.985 0.0236284
24.02 0.00261826
24.055 0.0109182
24.09 0.000750479
24.125 0.0171864
24.16 0.0299322
24.195 0.027721
24.23 0.0236447
24.265 0.019934
24.3 0.0569771
24.335 -0.000518909
24.37 0.000294794
24.405 0.0226536
24.44 0.00548205
24.475 0.0336387
24.51 0.019249
24.545 0.0301904
24.58 0.0200015
24.615 0.032266
24.65 0.0232678
24.685 0.0518587
24.72 0.028209
24.755 0.0512324
24.79 0.0630994
24.825 0.0704453
24.86 0.151965
24.895 0.360332
24.93 0.568714
24.965 0.89738
25 1.09784
25.035 1.22184
25.07 0.988499
25.105 0.715625
25.14 0.36146
25.175 0.236518
25.21 0.114646
25.245 0.0548406
25.28 0.0496799
25.315 0.0380635
25.35 -0.00581102
25.385 0.0342997
25.42 0.010839
25.455 0.0158016
25.49 0.0247764
25.525 0.00845264
25.56 0.0406648
25.595 0.046808
25.63 0.0220536
25.665 0.0481358
25.7 0.0150605
25.735 -0.00487861
25.77 0.0101181
25.805 0.00510253
25.84 0.0302142
25.875 -0.0218585
25.91 0.00831332
25.945 0.00374495
25.98 0.0143815
26.015 -0.0143115
26.05 -0.00874356
26.085 0.0283329
26.12 0.00331953
26.155 0.00792357
26.19 0.0115283
26.225 0.0127821
26.26 -0.00620566
26.295 0.0299266
26.33 0.00666648
26.365 0.0168041
26.4 -0.0189103
26.435 0.034474
26.47 0.0181671
26.505 0.0607109
26.54 0.025101
26.575 0.0340654
26.61 0.0589951
26.645 0.0454516
26.68 0.0483024
26.715 0.0313723
26.75 0.0382861
26.785 0.0106048
26.82 0.028381
26.855 0.0516268
26.89 0.00737964
26.925 0.00996199
26.96 0.0103071
26.995 0.0725481
27.03 0.0797117
27.065 0.104898
27.1 0.147265
27.135 0.14657
27.17 0.117065
27.205 0.0742894
27.24 0.0194105
27.275 0.0102641
27.31 -0.00977872
27.345 -0.0193239
27.38 0.00867304
27.415 0.0343939
27.45 0.0348717
27.485 -0.0125573
27.52 0.0230166
27.555 -0.0145829
27.59 0.00464873
27.625 -0.00373287
27.66 -0.00169252
27.695 0.0241488
27.73 0.0239572
27.765 0.00643411
27.8 -0.00283025
27.835 0.018026
27.87 0.0282725
27.905 0.0110021
27.94 0.0102149
27.975 0.0303909
28.01 0.023044
28.045 0.0220415
28.08 0.0590137
28.115 0.0419167
28.15 0.0801565
28.185 0.0795165
28.22 0.0725758
28.255 0.0330745
28.29 0.0112463
28.325 0.0204302
28.36 0.00827024
28.395 -0.000104254
28.43 0.00186368
28.465 0.0402517
28.5 0.0225738
28.535 0.0114627
28.57 0.035231
28.605 0.0293357
28.64 0.0433613
28.675 0.0338005
28.71 0.0438007
28.745 0.0376875
28.78 0.0620869
28.815 0.0643611
28.85 0.0151729
28.885 0.043517
28.92 0.0534334
28.955 0.043549
28.99 0.0481418
29.025 0.03694
29.06 0.00859752
29.095 0.00582027
29.13 0.0170851
29.165 -0.0248382
29.2 0.0332729
29.235 0.00447671
29.27 0.0181992
29.305 0.0390282
29.34 0.044405
29.375 0.0194306
29.41 -0.0027273
29.445 0.0322242
29.48 -0.0104831
29.515 0.000171964
29.55 0.0405866
29.585 0.0115422
29.62 0.0367663
29.655 -0.000544424
29.69 0.0428759
29.725 -0.0018857
29.76 0.0428562
29.795 0.0164712
29.83 0.0329895
29.865 0.0522243
29.9 0.0280961
29.935 0.0260596
29.97 0.0258127
30.005 0.00891655
30.04 0.0163108
30.075 0.0119475
30.11 0.0263153
30.145 0.0315095
30.18 0.0171137
30.215 0.0351828
30.25 0.0310835
30.285 0.042743
30.32 0.0883277
30.355 0.111348
30.39 0.213051
30.425 0.265692
30.46 0.238232
30.495 0.197355
30.53 0.18162
30.565 0.149776
30.6 0.102864
30.635 0.060646
30.67 0.043308
30.705 0.041021
30.74 0.0188171
30.775 0.0280442
30.81 0.0372039
30.845 0.0285219
30.88 0.0348463
30.915 0.0274506
30.95 0.0522515
30.985 0.0192997
31.02 0.0221418
31.055 0.0372906
31.09 0.043232
31.125 0.0660945
31.16 0.0725982
31.195 0.0567175
31.23 0.0998809
31.265 0.115943
31.3 0.185788
31.335 0.36843
31.37 0.629646
31.405 0.995361
31.44 1.24283
31.475 1.28927
31.51 1.06888
31.545 0.811403
31.58 0.482634
31.615 0.288296
31.65 0.171656
31.685 0.104732
31.72 0.148743
31.755 0.13159
31.79 0.163716
31.825 0.156465
31.86 0.133608
31.895 0.14277
31.93 0.0913355
31.965 0.0765945
32 0.055393
32.035 0.0704604
32.07 0.0513977
32.105 0.0418948
32.14 0.0284768
32.175 0.0177456
32.21 0.00648954
32.245 0.0169019
32.28 0.00225793
32.315 0.00509899
32.35 0.000689087
32.385 -0.00737343
32.42 -0.00205944
32.455 0.012916
32.49 -0.0048299
32.525 0.00898557
32.56 -0.0200599
32.595 0.0134204
32.63 -0.00127794
32.665 0.0237369
32.7 0.00417105
32.735 0.00907471
32.77 0.0204718
32.805 0.0233074
32.84 0.00197224
32.875 0.0161053
32.91 0.00332259
32.945 0.00382414
32.98 0.0186687
33.015 0.00851097
33.05 0.0291166
33.085 0.016942
33.12 0.00625675
33.155 0.0131377
33.19 0.00867726
33.225 0.00895909
33.26 -0.013306
33.295 0.00203903
33.33 0.0101599
33.365 0.000480753
33.4 0.00312319
33.435 0.0116168
33.47 -0.0154335
33.505 -0.00152554
33.54 -0.00496793
33.575 0.00797429
33.61 0.0196411
33.645 0.0130985
33.68 0.0204293
33.715 0.0285144
33.75 0.0355271
33.785 0.0922855
33.82 0.189529
33.855 0.32949
33.89 0.432173
33.925 0.519218
33.96 0.545979
33.995 0.485156
34.03 0.379465
34.065 0.305622
34.1 0.23388
34.135 0.196564
34.17 0.188273
34.205 0.17441
34.24 0.156364
34.275 0.0856533
34.31 0.0470609
34.345 0.0216823
34.38 0.023067
34.415 0.00606325
34.45 -0.0140446
34.485 -0.00323366
34.52 -0.00147219
34.555 0.00240937
34.59 -0.00267873
34.625 0.0131985
34.66 -0.0141418
34.695 -0.00564034
34.73 -0.00843109
34.765 0.000983516
34.8 -0.00764085
34.835 0.0126922
34.87 0.0233474
34.905 0.0279171
34.94 0.0312858
34.975 0.0514048
35.01 0.0230516
35.045 0.020313
35.08 0.0386576
35.115 0.0294018
35.15 0.0245014
35.185 0.0219008
35.22 0.0100219
35.255 0.0210166
35.29 0.0372457
35.325 -0.00288243
35.36 0.00374754
35.395 -0.000898637
35.43 0.00657156
35.465 -0.0135874
35.5 -0.0104367
35.535 -0.00833599
35.57 -0.0041374
35.605 0.00803808
35.64 0.00943574
35.675 -0.00821653
35.71 0.00817899
35.745 0.0124245
35.78 -0.0100938
35.815 0.00694954
35.85 -0.00212016
35.885 -0.0176453
35.92 -0.0167158
35.955 -0.00161887
35.99 -0.0244222
36.025 -0.000921121
36.06 -0.0121112
36.095 -0.0138894
36.13 -0.00813006
36.165 -0.0142337
36.2 -0.0159038
36.235 -0.0134814
36.27 -0.00759176
36.305 0.00217182
36.34 -0.0146386
36.375 -0.00672862
36.41 -0.0230888
36.445 0.0111848
36.48 -0.0134618
36.515 0.000409006
36.55 0.00910715
36.585 0.0374657
36.62 0.0526323
36.655 0.0569378
36.69 0.0358019
36.725 0.0356132
36.76 0.0242351
36.795 0.0129235
36.83 0.00918265
36.865 0.0018062
36.9 0.00722359
36.935 0.000230902
36.97 0.00597457
37.005 0.00534855
37.04 0.0160862
37.075 0.0228575
37.11 0.00559831
37.145 0.0104325
37.18 0.017441
37.215 0.0312028
37.25 0.0352376
37.285 0.0589726
37.32 0.117007
37.355 0.199754
37.39 0.289025
37.425 0.385467
37.46 0.425966
37.495 0.47961
37.53 0.483647
37.565 0.472915
37.6 0.431128
37.635 0.405758
37.67 0.372914
37.705 0.324124
37.74 0.317135
37.775 0.356002
37.81 0.455082
37.845 0.721038
37.88 1.15469
37.915 1.78855
37.95 2.85602
37.985 4.39371
38.02 5.67285
38.055 6.09302
38.09 5.00261
38.125 3.00984
38.16 1.4958
38.195 0.600838
38.23 0.318141
38.265 0.218788
38.3 0.2149
38.335 0.225089
38.37 0.20385
38.405 0.18734
38.44 0.158931
38.475 0.11791
38.51 0.0995625
38.545 0.0894086
38.58 0.0859338
38.615 0.0485474
38.65 0.0370354
38.685 0.0361004
38.72 0.00518072
38.755 0.00786236
38.79 0.0165154
38.825 0.000913825
38.86 0.00823954
38.895 -0.0168918
38.93 -0.0122239
38.965 -0.0232329
39 0.00371251
39.035 -0.00710237
39.07 0.00672207
39.105 0.0256241
39.14 0.0101962
39.175 0.0179155
39.21 0.0148152
39.245 0.0163871
39.28 -0.00397138
39.315 0.0218582
39.35 0.00651779
39.385 0.0117329
39.42 0.0141789
39.455 0.0181254
39.49 -0.00446911
39.525 0.0203019
39.56 0.0223456
39.595 0.0226197
39.63 0.0465375
39.665 0.0705946
39.7 0.132465
39.735 0.146455
39.77 0.148133
39.805 0.159601
39.84 0.195446
39.875 0.199074
39.91 0.217784
39.945 0.25964
39.98 0.263775
40.015 0.276033
40.05 0.275268
40.085 0.242357
40.12 0.189431
40.155 0.116474
40.19 0.0691755
40.225 0.0340752
40.26 0.0217384
40.295 -0.000621748
40.33 0.00222331
40.365 -0.00259482
40.4 0.000290888
40.435 -0.0042945
40.47 -0.0176127
40.505 -0.00553299
40.54 -0.00430807
40.575 0.0069609
40.61 -0.00892428
40.645 -0.00339549
40.68 0.0111037
40.715 0.0394346
40.75 0.0743084
40.785 0.115343
40.82 0.150575
40.855 0.199192
40.89 0.223279
40.925 0.204453
40.96 0.184907
40.995 0.114012
41.03 0.0725769
41.065 0.0458121
41.1 0.0170318
41.135 0.00204393
41.17 -0.00395197
41.205 -0.00639274
41.24 0.00181535
41.275 0.00121491
41.31 -0.0173034
41.345 0.00724485
41.38 -0.00574233
41.415 0.0105639
41.45 0.0191762
41.485 -0.00188576
41.52 0.0116821
41.555 0.00509093
41.59 0.00103827
41.625 0.00632669
41.66 -0.02154
41.695 -0.00844351
41.73 0.00740449
41.765 0.00217003
41.8 0.0164407
41.835 0.0246668
41.87 -0.0018115
41.905 0.0164735
41.94 0.00434254
41.975 0.00172626
42.01 0.00587272
42.045 0.00807753
42.08 0.00317488
42.115 0.00375968
42.15 0.00434411
42.185 -0.011886
42.22 -0.0112085
42.255 -0.00168973
42.29 0.00282474
42.325 -0.00350635
42.36 -0.0177852
42.395 -0.0067962
42.43 0.00110602
42.465 -0.012429
42.5 -0.00635554
42.535 0.00282069
42.57 0.00658206
42.605 0.00800497
42.64 -0.0073335
42.675 -0.00664528
42.71 0.00636544
42.745 0.00614442
42.78 0.0130846
42.815 0.0103253
42.85 0.0121039
42.885 0.0228895
42.92 0.0100538
42.955 -0.00188744
42.99 -0.00264759
43.025 -0.00699019
43.06 -0.0126792
43.095 -0.000971309
43.13 -0.0156823
43.165 0.00224226
43.2 -0.00447888
43.235 -0.00218548
43.27 0.00781426
43.305 0.00727928
43.34 0.0290414
43.375 0.0464275
43.41 0.0706094
43.445 0.0693996
43.48 0.10153
43.515 0.078717
43.55 0.0810474
43.585 0.0658565
43.62 0.0471546
43.655 0.0397883
43.69 0.0281938
43.725 0.0169078
43.76 0.0213858
43.795 0.00313883
43.83 0.0125611
43.865 0.00405163
43.9 -0.000445386
43.935 0.0191512
43.97 -0.00154941
44.005 -0.0113421
44.04 -0.00686795
44.075 -0.00923015
44.11 -0.0136329
44.145 0.00296818
44.18 0.00814185
44.215 0.030215
44.25 0.045475
44.285 0.0447362
44.32 0.05376
44.355 0.0597488
44.39 0.0393202
44.425 0.0290599
44.46 0.045762
44.495 0.0268247
44.53 0.037359
44.565 0.0643335
44.6 0.0910193
44.635 0.126853
44.67 0.126469
44.705 0.138136
44.74 0.11853
44.775 0.127145
44.81 0.130746
44.845 0.207743
44.88 0.346729
44.915 0.515129
44.95 0.636896
44.985 0.668234
45.02 0.561853
45.055 0.448636
45.09 0.31356
45.125 0.187328
45.16 0.13215
45.195 0.106566
45.23 0.0935099
45.265 0.0926465
45.3 0.104108
45.335 0.0710106
45.37 0.105212
45.405 0.148382
45.44 0.1579
45.475 0.171024
45.51 0.149188
45.545 0.115761
45.58 0.0783059
45.615 0.0519345
45.65 0.00531355
45.685 0.00282876
45.72 -0.0118848
45.755 0.000347956
45.79 -0.010466
45.825 0.0121094
45.86 -0.00858283
45.895 0.0104272
45.93 -0.0200131
45.965 -0.00346858
46 0.00530302
46.035 0.00247277
46.07 0.021277
46.105 0.00971857
46.14 0.0191879
46.175 0.0347981
46.21 0.0223392
46.245 0.0439077
46.28 0.0532817
46.315 0.0440975
46.35 0.0539571
46.385 0.0290874
46.42 0.0186073
46.455 0.00322193
46.49 0.0031163
46.525 0.00473793
46.56 0.0068317
46.595 -0.00461267
46.63 -7.76444e-05
46.665 -0.008461
46.7 -0.00126891
46.735 -0.020056
46.77 0.00560153
46.805 0.00346454
46.84 -0.00962069
46.875 0.00807455
46.91 -0.0145563
46.945 0.0185281
46.98 -0.0124134
47.015 0.00120279
47.05 0.0104663
47.085 -0.00253044
47.12 -0.0144458
47.155 -0.00875669
47.19 -0.0112028
47.225 -0.000204662
47.26 0.0168664
47.295 0.0226696
47.33 0.00916829
47.365 0.00757941
47.4 0.020968
47.435 0.019826
47.47 0.00792463
47.505 0.00792347
47.54 0.0136965
47.575 -0.00352979
47.61 0.00493255
47.645 0.00257306
47.68 0.00307348
47.715 0.0162476
47.75 -0.00678917
47.785 0.00985846
47.82 -0.00187489
47.855 0.00907859
47.89 0.0278804
47.925 0.0445533
47.96 0.0811758
47.995 0.140404
48.03 0.225606
48.065 0.255837
48.1 0.297248
48.135 0.264331
48.17 0.234507
48.205 0.161775
48.24 0.0892234
48.275 0.0512561
48.31 0.0204256
48.345 0.00601673
48.38 -0.0101969
48.415 -0.00667093
48.45 -0.000164295
48.485 -0.0179689
48.52 -0.00908321
48.555 -0.0161832
48.59 -0.00363316
48.625 0.0075471
48.66 0.00348844
48.695 0.00539027
48.73 0.0107809
48.765 0.0257728
48.8 0.0519961
48.835 0.11294
48.87 0.227858
48.905 0.377494
48.94 0.485698
48.975 0.462076
49.01 0.36529
49.045 0.289066
49.08 0.300556
49.115 0.3923
49.15 0.459591
49.185 0.471116
49.22 0.395355
49.255 0.313145
49.29 0.220605
49.325 0.145051
49.36 0.0915612
49.395 0.058834
49.43 0.0225848
49.465 0.0252994
49.5 0.0252853
49.535 0.0425632
49.57 0.0567662
49.605 0.0641433
49.64 0.0782824
49.675 0.0659316
49.71 0.0732589
49.745 0.0502073
49.78 0.0415187
49.815 0.0135792
49.85 0.021609
49.885 0.00111145
49.92 -0.00756458
49.955 -0.0109645
49.99 -6.20229e-05
50.025 -0.00508977
50.06 0.0110746
50.095 0.00738822
50.13 -0.00474696
50.165 -0.000786661
50.2 -0.00260922
50.235 -0.00423615
50.27 -0.016599
50.305 -0.0197743
50.34 0.00019106
50.375 0.00814086
50.41 0.0175544
50.445 0.0279464
50.48 0.063815
50.515 0.0804306
50.55 0.0811123
50.585 0.0705666
50.62 0.0436324
50.655 0.0303399
50.69 0.015808
50.725 0.00187593
50.76 0.00317648
50.795 -0.00107733
50.83 -0.0123729
50.865 -0.00195738
50.9 0.0118272
50.935 0.00235927
50.97 0.00828356
51.005 0.00808136
51.04 0.00974934
51.075 0.0383103
51.11 0.0697855
51.145 0.075399
51.18 0.0845128
51.215 0.114859
51.25 0.111086
51.285 0.0971101
51.32 0.0858867
51.355 0.0713978
51.39 0.0724086
51.425 0.0877592
51.46 0.0535874
51.495 0.0738211
51.53 0.09334
51.565 0.114515
51.6 0.172732
51.635 0.219025
51.67 0.260936
51.705 0.277627
51.74 0.26194
51.775 0.208184
51.81 0.158269
51.845 0.0944669
51.88 0.0502399
51.915 0.023181
51.95 0.00367348
51.985 -0.00598125
52.02 -0.0126618
52.055 -0.00240523
52.09 -0.00077189
52.125 0.00201738
52.16 -0.00546155
52.195 -0.00988456
52.23 -0.00801505
52.265 -0.00714149
52.3 0.00683635
52.335 -0.00416761
52.37 0.000155807
52.405 -0.00292692
52.44 -0.00312247
52.475 0.000396718
52.51 -0.000788962
52.545 -0.00689792
52.58 -0.012694
52.615 -0.0141751
52.65 -0.0121761
52.685 0.000781734
52.72 -0.00148188
52.755 -0.0110629
52.79 -0.0167046
52.825 -0.0141497
52.86 0.00863797
52.895 -0.0045658
52.93 0.00865453
52.965 0.0100421
53 0.00664369
53.035 0.0117044
53.07 0.00951693
53.105 -0.0032085
53.14 -0.0111656
53.175 -0.00803952
53.21 -0.0189375
53.245 0.00265612
53.28 -0.00137418
53.315 -0.0139652
53.35 -0.00582038
53.385 -0.0055733
53.42 -0.0128267
53.455 -0.0102324
53.49 0.00768172
53.525 -0.0155976
53.56 -0.00445849
53.595 0.0159033
53.63 0.0382353
53.665 0.0364013
53.7 0.0464452
53.735 0.0454251
53.77 0.0421213
53.805 0.0461564
53.84 0.0560069
53.875 0.0448226
53.91 0.0730687
53.945 0.0869062
53.98 0.0851536
54.015 0.0602713
54.05 0.0598814
54.085 0.0462999
54.12 0.0318796
54.155 0.0155693
54.19 0.00421921
54.225 -0.00365019
54.26 0.000850322
54.295 0.00232514
54.33 0.0101755
54.365 0.00321603
54.4 0.017208
54.435 0.0249207
54.47 0.0589969
54.505 0.121771
54.54 0.202625
54.575 0.194733
54.61 0.191322
54.645 0.147406
54.68 0.100448
54.715 0.072782
54.75 0.0605388
54.785 0.0543772
54.82 0.0610597
54.855 0.0654596
54.89 0.0650833
54.925 0.0453417
54.96 0.0276313
54.995 0.0110663
55.03 0.00834547
55.065 0.0242341
55.1 0.0382408
55.135 0.0422289
55.17 0.0532399
55.205 0.0589369
55.24 0.0662304
55.275 0.0808163
55.31 0.051686
55.345 0.0479292
55.38 0.0314826
55.415 0.0460233
55.45 0.0460577
55.485 0.0339221
55.52 0.0139283
55.555 0.0116223
55.59 0.0142723
55.625 0.00191022
55.66 0.00273557
55.695 -0.00711392
55.73 0.00163785
55.765 0.0123465
55.8 0.0213118
55.835 0.0270946
55.87 0.0768832
55.905 0.121593
55.94 0.145575
55.975 0.154249
56.01 0.166428
56.045 0.138395
56.08 0.101087
56.115 0.0750854
56.15 0.0551302
56.185 0.0284158
56.22 0.0205439
56.255 0.00240496
56.29 -0.000475995
56.325 -0.00108928
56.36 0.0051197
56.395 0.00828105
56.43 0.00513736
56.465 0.000475453
56.5 0.0175662
56.535 0.0114514
56.57 0.0163358
56.605 0.00778743
56.64 0.0134343
56.675 -0.00183864
56.71 -0.000943732
56.745 -0.00760726
56.78 0.00382113
56.815 4.541e-05
56.85 0.00979834
56.885 -0.00947192
56.92 0.0036888
56.955 0.0071286
56.99 0.000106263
57.025 0.000571957
57.06 0.0112068
57.095 0.0142066
57.13 0.00996687
57.165 0.010139
57.2 0.00748005
57.235 0.00797012
57.27 0.0180968
57.305 0.0178503
57.34 0.0135298
57.375 -0.00212667
57.41 0.00807036
57.445 0.00735961
57.48 0.0117282
57.515 0.0118345
57.55 0.0181053
57.585 0.0140327
57.62 0.0112123
57.655 0.0118727
57.69 0.0143374
57.725 0.00955794
57.76 0.00367508
57.795 -0.0124417
57.83 -0.00269852
57.865 -0.00404077
57.9 0.00151213
57.935 0.00218861
57.97 -0.000389006
58.005 -0.00304593
58.04 0.0038986
58.075 -0.00646423
58.11 0.00595743
58.145 0.00151055
58.18 -0.00520517
58.215 -0.0039422
58.25 0.00972921
58.285 -0.00118338
58.32 -0.00413754
58.355 0.0129864
58.39 0.00353393
58.425 0.0195785
58.46 0.0342687
58.495 0.0567208
58.53 0.0531578
58.565 0.0713969
58.6 0.0930395
58.635 0.0923923
58.67 0.079729
58.705 0.0765624
58.74 0.0456972
58.775 0.0263519
58.81 0.00995781
58.845 0.0117665
58.88 -0.013423
58.915 -0.00815649
58.95 0.00741825
58.985 -0.00944191
59.02 -0.0173827
59.055 -0.00250367
59.09 0.00274753
59.125 -0.0123325
59.16 -0.00255902
59.195 -0.0079884
59.23 0.0102514
59.265 0.00606494
59.3 0.00473643
59.335 0.0113631
59.37 0.0286526
59.405 0.0352505
59.44 0.0294603
59.475 0.0363827
59.51 0.016168
59.545 0.0365162
59.58 0.00142338
59.615 0.00224172
59.65 0.0109649
59.685 -0.0115269
59.72 0.0185712
59.755 0.00725726
59.79 0.00374178
59.825 0.00312331
59.86 0.00600385
59.895 0.0288054
59.93 0.00462975
59.965 0.0174504
60 0.00350991
60.035 0.00220275
60.07 0.0143965
60.105 -0.00903421
60.14 -0.0099549
60.175 0.000646588
60.21 -0.00829419
60.245 -0.0141318
60.28 -0.0174429
60.315 -0.0105266
60.35 -0.00730386
60.385 0.00141631
60.42 0.00559981
60.455 0.0159568
60.49 0.0209011
60.525 0.022309
60.56 0.0192702
60.595 0.0444209
60.63 0.0534291
60.665 0.0527698
60.7 0.0522191
60.735 0.0470497
60.77 0.0226599
60.805 0.0327121
60.84 0.00538426
60.875 0.0123131
60.91 0.016076
60.945 0.00302459
60.98 -0.00413887
61.015 -0.00681305
61.05 -0.00821192
61.085 0.002417
61.12 -0.00575242
61.155 -0.0124685
61.19 -0.00907069
61.225 0.0205362
61.26 0.0352845
61.295 0.0346893
61.33 0.03642
61.365 0.0213594
61.4 0.0088821
61.435 0.00187774
61.47 0.00044998
61.505 0.0119848
61.54 0.00674429
61.575 -0.000715195
61.61 -0.0087185
61.645 0.00342598
61.68 -0.000548537
61.715 -0.0170286
61.75 0.00304021
61.785 0.0133771
61.82 0.016443
61.855 -0.00430169
61.89 0.00536474
61.925 0.00132956
61.96 -0.013526
61.995 -0.0150904
62.03 -0.00236086
62.065 0.00531002
62.1 -0.00536651
62.135 -0.000760087
62.17 0.0160728
62.205 0.00987565
62.24 -0.00714195
62.275 0.000591601
62.31 0.00958022
62.345 0.0089073
62.38 0.0147179
62.415 0.01497
62.45 0.0272538
62.485 0.0382712
62.52 0.0337062
62.555 0.0451789
62.59 0.0533193
62.625 0.0802334
62.66 0.1007
62.695 0.0885421
62.73 0.0679752
62.765 0.0555251
62.8 0.0316361
62.835 0.0391835
62.87 0.0179606
62.905 0.0212721
62.94 0.0141624
62.975 -0.0156261
63.01 0.00927054
63.045 -0.00320559
63.08 -0.0137488
63.115 0.00272297
63.15 0.00620178
63.185 0.0202852
63.22 0.0329046
63.255 0.0764605
63.29 0.0527006
63.325 0.0686719
63.36 0.050574
63.395 0.0415436
63.43 0.0466464
63.465 0.0017225
63.5 0.00194234
63.535 -0.00405688
63.57 0.0147764
63.605 0.00638854
63.64 -0.00418152
63.675 -0.00439767
63.71 -0.0164344
63.745 -0.0150329
63.78 -0.00913976
63.815 -0.0184756
63.82 -0.0185292