File: data/xrd/xy/2019-05-29T19_56_50.129046+00_00_LBL_B1.xy
'Id: "" Comment: "Integrate frame 4Fluorophenyl_02_002.gfrmwith cursor Wedge Cursor #2" Operator: "UC Berkeley" Anode: "Co" Scantype: "TwoTheta" TimePerStep: "600"
14.435 -0.0248292
14.47 0.035358
14.505 -0.00199321
14.54 0.0629778
14.575 0.0163345
14.61 0.003589
14.645 0.0439809
14.68 0.0475431
14.715 0.0299377
14.75 0.0226262
14.785 0.0546091
14.82 0.0135968
14.855 0.037242
14.89 0.00346606
14.925 0.0269474
14.96 0.0229158
14.995 0.0221315
15.03 0.0115417
15.065 -0.0111184
15.1 0.0261503
15.135 0.0157716
15.17 0.000220009
15.205 0.00831106
15.24 0.0473095
15.275 0.024004
15.31 0.0415608
15.345 -0.000816727
15.38 -0.00703885
15.415 -0.000629041
15.45 0.0221913
15.485 0.000254339
15.52 0.0377376
15.555 0.0410571
15.59 0.0593442
15.625 0.0198683
15.66 0.015304
15.695 0.0356732
15.73 0.00953907
15.765 -0.00630736
15.8 0.00619617
15.835 0.0245227
15.87 0.0154663
15.905 -0.00393483
15.94 0.022717
15.975 -0.0135036
16.01 0.0453644
16.045 -0.0118852
16.08 0.0231816
16.115 0.00539147
16.15 0.0430335
16.185 0.0154947
16.22 0.0369434
16.255 -0.0167141
16.29 0.00440065
16.325 0.000715764
16.36 -0.0173787
16.395 0.0288028
16.43 -0.00833237
16.465 0.0361977
16.5 0.0172998
16.535 0.0556683
16.57 0.00990844
16.605 0.046464
16.64 0.0309538
16.675 0.0351407
16.71 0.0353396
16.745 0.0412052
16.78 0.044149
16.815 0.0229562
16.85 0.013916
16.885 0.0301853
16.92 -0.00336892
16.955 0.0300668
16.99 0.0394961
17.025 0.0294707
17.06 0.0444228
17.095 0.0558217
17.13 0.0822636
17.165 0.0198485
17.2 0.0512716
17.235 0.0795197
17.27 0.0706959
17.305 -0.00478619
17.34 -0.000981853
17.375 0.0550718
17.41 0.00717088
17.445 -0.00214189
17.48 0.02024
17.515 0.0481374
17.55 0.0317698
17.585 -0.00414832
17.62 0.0547703
17.655 0.0361706
17.69 0.0240219
17.725 0.02373
17.76 0.0341447
17.795 0.0363817
17.83 0.0459086
17.865 0.00923939
17.9 0.0326917
17.935 -0.00775387
17.97 0.0484956
18.005 0.0147972
18.04 0.000277945
18.075 0.0165996
18.11 0.0660238
18.145 0.0111214
18.18 0.0288707
18.215 0.0298108
18.25 0.0654826
18.285 0.0481067
18.32 0.0629871
18.355 0.130337
18.39 0.137157
18.425 0.0916421
18.46 0.082507
18.495 0.0934393
18.53 0.0523089
18.565 0.0883804
18.6 0.0866746
18.635 0.182481
18.67 0.10692
18.705 0.0658249
18.74 0.0651097
18.775 -0.0131366
18.81 0.0535469
18.845 0.0113926
18.88 0.0208124
18.915 0.0503469
18.95 0.0133117
18.985 0.0262425
19.02 0.0295291
19.055 0.0492316
19.09 0.0441253
19.125 0.0610346
19.16 0.0148206
19.195 0.0566486
19.23 0.0425739
19.265 0.0252275
19.3 0.0159476
19.335 0.0387294
19.37 0.0288506
19.405 0.0194863
19.44 0.0553678
19.475 0.0438324
19.51 0.0182702
19.545 0.0331617
19.58 0.0452914
19.615 0.0171444
19.65 0.00924927
19.685 0.00506267
19.72 0.0307241
19.755 0.0238435
19.79 0.0414461
19.825 0.0263174
19.86 0.0277446
19.895 0.0329926
19.93 0.0160735
19.965 0.0336156
20 0.00111401
20.035 0.0123584
20.07 0.00334092
20.105 0.0143376
20.14 0.00171992
20.175 0.000232826
20.21 -0.00947132
20.245 0.0340809
20.28 0.0266611
20.315 0.0333635
20.35 0.0483857
20.385 0.0204632
20.42 0.0262306
20.455 0.014733
20.49 0.0325219
20.525 0.043093
20.56 0.035478
20.595 0.0152085
20.63 0.0297538
20.665 0.022221
20.7 0.0435147
20.735 0.015526
20.77 0.0443261
20.805 0.0364511
20.84 0.0248213
20.875 0.0208764
20.91 0.00935128
20.945 0.0182268
20.98 -0.011803
21.015 0.0125144
21.05 0.0376487
21.085 0.0322947
21.12 0.0306722
21.155 0.0587953
21.19 0.0545383
21.225 0.0396493
21.26 0.0426798
21.295 0.0629376
21.33 0.0230215
21.365 0.0358139
21.4 0.0144591
21.435 0.0129105
21.47 0.0169975
21.505 0.0181489
21.54 -0.00876412
21.575 0.0522313
21.61 0.02153
21.645 0.0489461
21.68 0.0311278
21.715 0.0272898
21.75 0.0341943
21.785 0.0526621
21.82 0.0701622
21.855 0.0268273
21.89 0.0311564
21.925 0.0655792
21.96 0.0115514
21.995 -0.0151705
22.03 0.00370202
22.065 0.0233007
22.1 0.0221331
22.135 0.0042217
22.17 0.0208803
22.205 0.0429214
22.24 0.0260112
22.275 0.0375103
22.31 0.034689
22.345 0.0051598
22.38 0.0212719
22.415 0.0159669
22.45 0.0249376
22.485 0.0330805
22.52 0.00879125
22.555 0.0358097
22.59 0.0167171
22.625 0.02629
22.66 0.0231874
22.695 0.00917255
22.73 0.00347859
22.765 0.043432
22.8 0.028229
22.835 0.058319
22.87 0.0254903
22.905 0.0249738
22.94 0.0332297
22.975 0.0295726
23.01 -0.00249464
23.045 0.0282342
23.08 0.0271716
23.115 0.033801
23.15 0.0362025
23.185 0.0476011
23.22 0.000213592
23.255 0.025282
23.29 0.0215422
23.325 0.0509137
23.36 0.0404144
23.395 0.0211747
23.43 0.0705611
23.465 0.0531963
23.5 0.115834
23.535 0.061161
23.57 0.104161
23.605 0.113661
23.64 0.130001
23.675 0.186912
23.71 0.244796
23.745 0.326896
23.78 0.518264
23.815 0.81484
23.85 1.42443
23.885 2.41216
23.92 2.46514
23.955 1.99449
23.99 0.869465
24.025 0.300128
24.06 0.0839217
24.095 0.0768006
24.13 0.0524615
24.165 0.0385447
24.2 0.0761618
24.235 0.037861
24.27 0.0401134
24.305 0.0434413
24.34 0.0268502
24.375 0.0425442
24.41 0.0142993
24.445 0.0150404
24.48 0.0356206
24.515 0.032474
24.55 0.0494605
24.585 0.0437368
24.62 0.0278311
24.655 0.0657316
24.69 0.0226679
24.725 0.0165428
24.76 0.0277211
24.795 0.0384708
24.83 0.0138952
24.865 0.0463007
24.9 0.14013
24.935 0.189737
24.97 0.20609
25.005 0.192264
25.04 0.161378
25.075 0.0766597
25.11 0.0480939
25.145 0.024279
25.18 0.0245742
25.215 0.0552426
25.25 0.049656
25.285 0.0116638
25.32 0.0584406
25.355 0.0339176
25.39 0.0574676
25.425 0.0227957
25.46 0.0172149
25.495 0.030683
25.53 0.0352769
25.565 0.0462958
25.6 0.0675637
25.635 0.0372817
25.67 0.0260062
25.705 -0.00312308
25.74 0.0180424
25.775 0.0616301
25.81 0.0272039
25.845 0.0358337
25.88 0.0253223
25.915 0.0277977
25.95 0.0435269
25.985 0.00186308
26.02 0.0150027
26.055 0.0155255
26.09 0.0283436
26.125 0.0419182
26.16 0.0514643
26.195 -0.000624168
26.23 0.0703085
26.265 0.0235563
26.3 0.0592976
26.335 0.0232784
26.37 0.0378387
26.405 0.0319687
26.44 0.0711027
26.475 0.113557
26.51 0.22529
26.545 0.34539
26.58 0.470337
26.615 0.381749
26.65 0.266496
26.685 0.144326
26.72 0.102765
26.755 0.0527707
26.79 0.0321847
26.825 0.0486414
26.86 0.0562437
26.895 0.0548935
26.93 0.0465917
26.965 0.0640615
27 0.0433498
27.035 0.0529888
27.07 0.0752527
27.105 0.0472613
27.14 0.0819352
27.175 0.0599704
27.21 0.0585872
27.245 0.050525
27.28 0.0315831
27.315 0.0192066
27.35 0.0446877
27.385 0.0321541
27.42 0.0325777
27.455 -0.00370147
27.49 0.0412953
27.525 0.0257221
27.56 0.0293606
27.595 0.0500117
27.63 0.0551358
27.665 0.0445859
27.7 0.076948
27.735 0.0494499
27.77 0.0537411
27.805 0.0642518
27.84 0.0327291
27.875 0.0527003
27.91 0.0603088
27.945 0.0816269
27.98 0.142494
28.015 0.108098
28.05 0.0802963
28.085 0.0908399
28.12 0.0657874
28.155 0.0450803
28.19 0.0386194
28.225 0.0176208
28.26 0.0436254
28.295 0.038306
28.33 0.0330005
28.365 0.00263115
28.4 0.0174679
28.435 0.0570309
28.47 0.0458521
28.505 0.0629495
28.54 0.0847474
28.575 0.0752521
28.61 0.0690373
28.645 0.0607319
28.68 0.060227
28.715 0.0593536
28.75 0.0137445
28.785 0.0740259
28.82 0.0404971
28.855 0.0408697
28.89 0.0383048
28.925 0.0618165
28.96 0.0251479
28.995 0.0612639
29.03 0.0210608
29.065 0.01517
29.1 0.0173485
29.135 0.00556631
29.17 0.00775505
29.205 -0.00692029
29.24 0.00806379
29.275 0.0406641
29.31 0.0319022
29.345 0.0504594
29.38 0.0145695
29.415 0.00405968
29.45 0.0186315
29.485 0.00951146
29.52 -0.0186054
29.555 0.0424719
29.59 0.00798544
29.625 0.0205336
29.66 0.0418646
29.695 0.0238719
29.73 -0.0119859
29.765 0.0345166
29.8 0.0102302
29.835 -0.00158137
29.87 0.00969573
29.905 -0.00125093
29.94 0.0328858
29.975 0.0215605
30.01 0.0353729
30.045 0.00889077
30.08 0.00279993
30.115 0.00782918
30.15 0.0177176
30.185 0.0172529
30.22 -0.0059392
30.255 -0.00104449
30.29 0.0212473
30.325 0.0382531
30.36 0.0860942
30.395 0.0748398
30.43 0.130094
30.465 0.199767
30.5 0.264105
30.535 0.261367
30.57 0.171134
30.605 0.119095
30.64 0.0571028
30.675 0.0580124
30.71 0.0555149
30.745 0.0515461
30.78 0.087907
30.815 0.1808
30.85 0.299493
30.885 0.463746
30.92 0.51288
30.955 0.460198
30.99 0.342071
31.025 0.203064
31.06 0.12824
31.095 0.112027
31.13 0.154626
31.165 0.255082
31.2 0.531836
31.235 0.997773
31.27 1.5832
31.305 1.89341
31.34 1.72165
31.375 1.36581
31.41 1.13499
31.445 1.01691
31.48 0.907783
31.515 0.697688
31.55 0.481826
31.585 0.303847
31.62 0.252624
31.655 0.2708
31.69 0.386773
31.725 0.487292
31.76 0.688693
31.795 0.858548
31.83 1.06575
31.865 1.08227
31.9 0.801251
31.935 0.458905
31.97 0.234046
32.005 0.098263
32.04 0.0577278
32.075 0.063108
32.11 0.0314784
32.145 0.0286662
32.18 0.0234947
32.215 0.0086689
32.25 -0.0112304
32.285 0.0211371
32.32 0.0130037
32.355 -0.0115685
32.39 -0.00734616
32.425 0.00639542
32.46 -0.0043376
32.495 0.0207242
32.53 0.001814
32.565 0.00672724
32.6 0.015347
32.635 0.0317069
32.67 0.0204632
32.705 -0.0104623
32.74 -0.0132235
32.775 0.0095604
32.81 -0.000565594
32.845 0.0192477
32.88 -0.00798379
32.915 -0.0105318
32.95 -0.00996341
32.985 0.0130434
33.02 0.00163864
33.055 0.00131396
33.09 0.00374404
33.125 -0.00963828
33.16 -0.000196686
33.195 -0.00101488
33.23 0.011693
33.265 -0.00597117
33.3 0.0134348
33.335 0.0268951
33.37 0.00685558
33.405 -0.00721299
33.44 0.0156441
33.475 0.0163897
33.51 -0.00720731
33.545 0.00596739
33.58 0.0228983
33.615 -0.0138226
33.65 0.021196
33.685 0.0470243
33.72 0.0498063
33.755 0.0516458
33.79 0.0748205
33.825 0.134478
33.86 0.0996271
33.895 0.109377
33.93 0.128038
33.965 0.145921
34 0.224359
34.035 0.314545
34.07 0.371519
34.105 0.42082
34.14 0.418602
34.175 0.422326
34.21 0.383192
34.245 0.289907
34.28 0.183455
34.315 0.105903
34.35 0.0368248
34.385 0.0293044
34.42 0.00439917
34.455 0.00771901
34.49 0.00128673
34.525 -0.00840067
34.56 0.00276758
34.595 0.00807203
34.63 0.00617623
34.665 0.00131576
34.7 0.0180376
34.735 0.0174514
34.77 0.0405801
34.805 0.0560983
34.84 0.0676338
34.875 0.0619918
34.91 0.0632055
34.945 0.0344476
34.98 0.0154766
35.015 0.0205039
35.05 0.0250857
35.085 0.019795
35.12 0.011116
35.155 0.00422633
35.19 -0.00686352
35.225 0.0204321
35.26 -0.00689133
35.295 0.00110624
35.33 -0.018223
35.365 0.017129
35.4 0.00549529
35.435 -0.00175301
35.47 -0.0127641
35.505 0.00347636
35.54 -0.00985664
35.575 0.00731931
35.61 0.0161903
35.645 0.00335784
35.68 -0.00380153
35.715 0.00437528
35.75 0.00425127
35.785 0.0126526
35.82 0.00162718
35.855 -0.00550906
35.89 0.00211993
35.925 -0.00420686
35.96 -0.0143909
35.995 -0.00195786
36.03 -0.0142554
36.065 0.0206502
36.1 -0.00225615
36.135 0.00655463
36.17 -0.0104119
36.205 0.0114647
36.24 0.00844866
36.275 -0.00241535
36.31 -0.00720705
36.345 -0.00159319
36.38 -0.00105649
36.415 0.0122826
36.45 -0.00493847
36.485 -0.00739202
36.52 -0.011191
36.555 0.00919217
36.59 0.000548307
36.625 0.00425161
36.66 -0.00196314
36.695 -0.00923211
36.73 -0.00284108
36.765 -0.00307479
36.8 0.00412988
36.835 0.01379
36.87 0.00520447
36.905 -0.00125894
36.94 -0.000195164
36.975 -0.00153073
37.01 0.00879811
37.045 0.0112464
37.08 0.0357748
37.115 0.0254427
37.15 0.0066418
37.185 0.00954508
37.22 0.0291833
37.255 0.0369443
37.29 0.0598225
37.325 0.0819817
37.36 0.148868
37.395 0.244529
37.43 0.326225
37.465 0.396345
37.5 0.455281
37.535 0.509266
37.57 0.643167
37.605 0.816039
37.64 1.05168
37.675 1.09942
37.71 1.09192
37.745 1.00887
37.78 1.03807
37.815 1.11894
37.85 1.2403
37.885 1.40813
37.92 1.47374
37.955 1.26776
37.99 0.955884
38.025 0.621308
38.06 0.35393
38.095 0.244667
38.13 0.204941
38.165 0.195204
38.2 0.236218
38.235 0.380937
38.27 0.451255
38.305 0.439869
38.34 0.330633
38.375 0.22746
38.41 0.136799
38.445 0.0653549
38.48 0.049326
38.515 0.0282929
38.55 0.0240411
38.585 0.0166281
38.62 0.0287909
38.655 0.0167053
38.69 0.0263952
38.725 0.0159013
38.76 -0.00519419
38.795 0.0140813
38.83 0.0112319
38.865 0.00683658
38.9 -0.0103759
38.935 0.0131485
38.97 0.0320103
39.005 0.061672
39.04 0.123782
39.075 0.176986
39.11 0.195523
39.145 0.216534
39.18 0.173524
39.215 0.118489
39.25 0.0866249
39.285 0.0587496
39.32 0.0364834
39.355 0.0574656
39.39 0.0722837
39.425 0.0736935
39.46 0.0694076
39.495 0.0749609
39.53 0.0683008
39.565 0.0309296
39.6 0.0325496
39.635 0.0326486
39.67 0.0154631
39.705 0.0285576
39.74 0.0727714
39.775 0.101918
39.81 0.165157
39.845 0.188339
39.88 0.189834
39.915 0.166357
39.95 0.166177
39.985 0.180998
40.02 0.193766
40.055 0.188536
40.09 0.173833
40.125 0.114205
40.16 0.081516
40.195 0.0518986
40.23 0.0317436
40.265 0.0192756
40.3 0.0113633
40.335 0.00666614
40.37 0.0139731
40.405 0.012448
40.44 -0.00699072
40.475 -0.00666539
40.51 0.00117301
40.545 -0.00241961
40.58 0.00966604
40.615 0.0109022
40.65 -0.00411945
40.685 0.0108713
40.72 -0.00708068
40.755 -0.000620515
40.79 0.011233
40.825 0.0167836
40.86 0.0350736
40.895 0.0409166
40.93 0.0441038
40.965 0.0206784
41 0.0216301
41.035 -0.00266415
41.07 -0.00430313
41.105 0.00145695
41.14 0.00178056
41.175 -0.0055728
41.21 -0.00105024
41.245 -0.0084891
41.28 -0.014852
41.315 0.0044283
41.35 -0.000842331
41.385 0.00247294
41.42 0.00192229
41.455 0.00860137
41.49 -0.00619598
41.525 0.00269158
41.56 0.000241282
41.595 -0.0104786
41.63 0.00184317
41.665 0.0168638
41.7 -0.00786133
41.735 0.0168191
41.77 0.00301758
41.805 0.00827622
41.84 0.00867312
41.875 0.0185496
41.91 0.00896751
41.945 0.0185897
41.98 0.00953159
42.015 0.000290519
42.05 -0.00434791
42.085 0.00194638
42.12 -0.000440201
42.155 -0.00313548
42.19 -0.00308865
42.225 -0.0165318
42.26 -0.0127721
42.295 0.00640817
42.33 -0.00638974
42.365 0.0052964
42.4 0.0158852
42.435 0.0190889
42.47 0.0334771
42.505 0.0725677
42.54 0.0786996
42.575 0.0778522
42.61 0.0471835
42.645 0.0194676
42.68 0.0129379
42.715 0.0142792
42.75 0.0290262
42.785 0.0281842
42.82 0.0374009
42.855 0.0143607
42.89 0.0318494
42.925 -0.000351731
42.96 0.0011316
42.995 0.00492917
43.03 -0.012885
43.065 0.0039412
43.1 0.00302007
43.135 -0.00103631
43.17 0.0111613
43.205 -0.00212252
43.24 0.00415948
43.275 0.00965299
43.31 0.0379424
43.345 0.024642
43.38 0.0422877
43.415 0.055545
43.45 0.0652577
43.485 0.0439973
43.52 0.0340793
43.555 0.025124
43.59 0.0125163
43.625 0.0162794
43.66 0.0380347
43.695 0.0122622
43.73 0.026304
43.765 0.0240269
43.8 -0.00295107
43.835 0.00144756
43.87 0.0178974
43.905 -0.00915943
43.94 0.000163858
43.975 0.00292506
44.01 0.000861305
44.045 0.0139886
44.08 0.00983461
44.115 0.0234654
44.15 0.0606307
44.185 0.0444025
44.22 0.0434172
44.255 0.0604937
44.29 0.0369328
44.325 0.0771135
44.36 0.114296
44.395 0.180765
44.43 0.248331
44.465 0.28201
44.5 0.265299
44.535 0.264188
44.57 0.232002
44.605 0.247539
44.64 0.230761
44.675 0.233358
44.71 0.204576
44.745 0.139488
44.78 0.114006
44.815 0.071954
44.85 0.057351
44.885 0.0501471
44.92 0.077463
44.955 0.0681396
44.99 0.0557933
45.025 0.0714515
45.06 0.0755453
45.095 0.0566523
45.13 0.0316591
45.165 0.0564987
45.2 0.0547881
45.235 0.0772031
45.27 0.112625
45.305 0.133543
45.34 0.158916
45.375 0.163707
45.41 0.143136
45.445 0.0726886
45.48 0.0671874
45.515 0.0262606
45.55 0.0257662
45.585 0.0267939
45.62 0.0278825
45.655 0.00753775
45.69 -0.010851
45.725 0.00115548
45.76 0.00121031
45.795 -0.0129137
45.83 0.0124006
45.865 -0.0133532
45.9 0.00583182
45.935 -0.00357628
45.97 0.020555
46.005 0.0387033
46.04 0.0674839
46.075 0.0488714
46.11 0.0645036
46.145 0.0383113
46.18 0.0314736
46.215 0.0316841
46.25 0.0295507
46.285 0.0265855
46.32 0.0212504
46.355 0.00173494
46.39 0.0166396
46.425 0.00524487
46.46 0.00517115
46.495 0.0104558
46.53 0.00767566
46.565 2.66812e-05
46.6 -0.00308827
46.635 -0.00561138
46.67 0.000273242
46.705 0.0102051
46.74 -0.0034843
46.775 0.0117339
46.81 0.00456369
46.845 0.00286224
46.88 -0.00423426
46.915 0.0107757
46.95 -0.00933245
46.985 0.00529047
47.02 0.00494277
47.055 0.0074212
47.09 0.0017793
47.125 -0.000178264
47.16 0.00305057
47.195 0.000823191
47.23 0.00505077
47.265 0.0136504
47.3 0.0230747
47.335 0.0182919
47.37 0.0141256
47.405 0.0209644
47.44 0.0128112
47.475 0.0186117
47.51 0.00534192
47.545 0.0172122
47.58 -0.0182607
47.615 0.0140114
47.65 0.00341768
47.685 0.0185939
47.72 -0.00270371
47.755 0.000292477
47.79 -0.00957765
47.825 0.0236897
47.86 0.0107053
47.895 0.0236576
47.93 0.0131003
47.965 0.0181715
48 0.0228814
48.035 0.022954
48.07 0.0115523
48.105 0.0103145
48.14 -0.00262847
48.175 3.25519e-05
48.21 -0.00819912
48.245 0.00483261
48.28 0.00470257
48.315 0.0022851
48.35 0.0099956
48.385 0.00150055
48.42 0.0101345
48.455 0.00426125
48.49 0.0189849
48.525 0.0348066
48.56 0.0566697
48.595 0.0416677
48.63 0.0592636
48.665 0.0704363
48.7 0.0890195
48.735 0.0919601
48.77 0.100525
48.805 0.097782
48.84 0.158079
48.875 0.245551
48.91 0.451361
48.945 0.696747
48.98 0.978978
49.015 1.0629
49.05 1.04532
49.085 0.830788
49.12 0.598526
49.155 0.404804
49.19 0.240097
49.225 0.156122
49.26 0.0964439
49.295 0.102592
49.33 0.0889799
49.365 0.0973046
49.4 0.0900244
49.435 0.111732
49.47 0.131239
49.505 0.158017
49.54 0.176954
49.575 0.161634
49.61 0.140258
49.645 0.102885
49.68 0.0515521
49.715 0.031002
49.75 0.0146076
49.785 -0.00656632
49.82 0.00690189
49.855 -0.000302765
49.89 -0.00166105
49.925 0.00547875
49.96 0.00256985
49.995 0.00850327
50.03 0.00445079
50.065 0.000876939
50.1 -0.00509691
50.135 -0.0084551
50.17 -0.011173
50.205 0.00307521
50.24 -0.00978196
50.275 -0.00161471
50.31 0.00246904
50.345 -0.00654732
50.38 0.00716549
50.415 0.0106474
50.45 0.0255143
50.485 0.0301263
50.52 0.0277245
50.555 0.0210344
50.59 0.0158913
50.625 0.00818335
50.66 0.0031622
50.695 -0.0102753
50.73 -0.00557465
50.765 -0.00742027
50.8 0.00551047
50.835 -0.00912425
50.87 0.00266229
50.905 0.0122761
50.94 0.0117232
50.975 0.0178181
51.01 0.0219595
51.045 0.0181119
51.08 0.0206715
51.115 0.0314863
51.15 0.0263671
51.185 0.025407
51.22 0.0302639
51.255 0.0409522
51.29 0.0340363
51.325 0.0325777
51.36 0.0134715
51.395 0.0295379
51.43 0.0185103
51.465 0.0283276
51.5 0.0405813
51.535 0.0208258
51.57 0.0375064
51.605 0.0467509
51.64 0.0508765
51.675 0.046013
51.71 0.0356132
51.745 0.0328117
51.78 0.0282314
51.815 0.0280769
51.85 -0.00171776
51.885 0.002177
51.92 0.000748632
51.955 -0.00378536
51.99 -0.0128099
52.025 -0.00902122
52.06 -0.00723036
52.095 0.00839751
52.13 0.00349692
52.165 0.009588
52.2 0.00431864
52.235 0.00427951
52.27 -0.00193334
52.305 0.00458621
52.34 -0.00522728
52.375 -0.00139745
52.41 -0.00881558
52.445 -0.00394224
52.48 -0.0086038
52.515 -0.00429818
52.55 -0.00693808
52.585 -0.0117405
52.62 -0.00783996
52.655 -0.0166532
52.69 -0.00405594
52.725 -0.00287528
52.76 -0.00546479
52.795 -0.00780369
52.83 -0.00317144
52.865 0.000844873
52.9 -0.00370907
52.935 0.0054113
52.97 -0.00746784
53.005 0.00784505
53.04 0.0197598
53.075 0.0113107
53.11 0.00822986
53.145 0.00987042
53.18 0.0106513
53.215 0.024051
53.25 0.0329136
53.285 0.0317842
53.32 0.0616108
53.355 0.0800378
53.39 0.0985843
53.425 0.125953
53.46 0.119559
53.495 0.118624
53.53 0.11942
53.565 0.1395
53.6 0.147689
53.635 0.154508
53.67 0.142023
53.705 0.119452
53.74 0.123757
53.775 0.110989
53.81 0.113206
53.845 0.112367
53.88 0.116228
53.915 0.0931479
53.95 0.092615
53.985 0.0695976
54.02 0.0568839
54.055 0.0561057
54.09 0.0463143
54.125 0.0484939
54.16 0.0408964
54.195 0.0158621
54.23 0.0244952
54.265 0.0144619
54.3 0.019651
54.335 0.0311789
54.37 0.0250101
54.405 0.0211981
54.44 0.0233014
54.475 0.02548
54.51 0.0193841
54.545 0.0224209
54.58 0.0469554
54.615 0.0646746
54.65 0.0793059
54.685 0.0850983
54.72 0.0776628
54.755 0.0754572
54.79 0.030474
54.825 0.033627
54.86 0.0283577
54.895 0.0151022
54.93 0.00954294
54.965 0.0265862
55 0.027129
55.035 0.038242
55.07 0.0645153
55.105 0.0854509
55.14 0.110766
55.175 0.114116
55.21 0.103612
55.245 0.101608
55.28 0.0756645
55.315 0.0433864
55.35 0.0147484
55.385 0.0222326
55.42 0.00378908
55.455 -0.00657985
55.49 0.00332802
55.525 0.0066455
55.56 -0.0141205
55.595 -0.00682254
55.63 -0.013766
55.665 -0.00624685
55.7 -0.00114394
55.735 0.00734565
55.77 -0.000462148
55.805 0.0170459
55.84 0.0241552
55.875 0.0302483
55.91 0.0315114
55.945 0.0390912
55.98 0.0191486
56.015 0.0105617
56.05 0.0203897
56.085 0.0135105
56.12 0.00723476
56.155 -0.00249463
56.19 -0.00605535
56.225 0.0138365
56.26 0.00758245
56.295 0.0108459
56.33 -0.00383237
56.365 -0.00704701
56.4 -0.0121154
56.435 -0.00394287
56.47 -0.00764121
56.505 -0.00526955
56.54 -0.0049997
56.575 -0.000781555
56.61 0.000510036
56.645 -0.0159457
56.68 -0.0131574
56.715 -0.0119003
56.75 -0.00674689
56.785 -0.0041154
56.82 -0.00611094
56.855 -0.00493573
56.89 -0.00332355
56.925 -0.00472119
56.96 -0.0128766
56.995 0.0028836
57.03 0.00993998
57.065 -0.00314188
57.1 0.00350014
57.135 0.0225446
57.17 0.0197449
57.205 0.0300369
57.24 0.021563
57.275 0.0310468
57.31 0.00562074
57.345 0.0124612
57.38 -0.00927153
57.415 0.00460724
57.45 -0.00291648
57.485 0.00143078
57.52 0.020388
57.555 0.00307108
57.59 -0.000337123
57.625 -0.00189797
57.66 -0.00541683
57.695 -0.00128282
57.73 -0.00201425
57.765 -0.00485995
57.8 -0.0102812
57.835 -0.0044645
57.87 -0.00670849
57.905 -0.00216909
57.94 -0.0165981
57.975 -0.00831142
58.01 0.00538974
58.045 -0.00584178
58.08 0.00198251
58.115 0.00545397
58.15 -0.00637001
58.185 0.00310093
58.22 0.0127165
58.255 0.0429325
58.29 0.0939554
58.325 0.163426
58.36 0.234564
58.395 0.308324
58.43 0.373677
58.465 0.387041
58.5 0.472266
58.535 0.38729
58.57 0.330325
58.605 0.206894
58.64 0.145216
58.675 0.112387
58.71 0.0967747
58.745 0.0577026
58.78 0.0311981
58.815 0.00239993
58.85 -0.00389554
58.885 0.000281454
58.92 -0.00365775
58.955 0.0184428
58.99 0.0248541
59.025 0.0411561
59.06 0.0418264
59.095 0.0345094
59.13 0.0297088
59.165 0.00752065
59.2 0.00271049
59.235 -0.000175602
59.27 0.0203418
59.305 -0.0125618
59.34 0.0112759
59.375 0.00831055
59.41 0.00909362
59.445 0.00479733
59.48 0.00679342
59.515 -0.00859749
59.55 -0.00144248
59.585 0.00507633
59.62 -0.00424948
59.655 2.74094e-05
59.69 0.015069
59.725 -0.00319388
59.76 -0.00252457
59.795 -0.00163181
59.83 -0.0139246
59.865 -0.00520604
59.9 -0.00986938
59.935 -0.00291968
59.97 0.00289584
60.005 -0.00294367
60.04 -0.00521691
60.075 -0.00593948
60.11 -0.0129636
60.145 -0.00994134
60.18 -0.000768224
60.215 0.00521412
60.25 0.00330044
60.285 -0.000429767
60.32 -0.00654452
60.355 -0.0103696
60.39 -0.00496267
60.425 -0.00247591
60.46 0.00934775
60.495 0.0320405
60.53 0.00971005
60.565 0.0110999
60.6 0.00169622
60.635 0.00609898
60.67 0.00368509
60.705 -0.00973387
60.74 0.0125232
60.775 0.00338922
60.81 0.0115178
60.845 -0.00508115
60.88 -0.00173942
60.915 -0.0102373
60.95 0.00607182
60.985 0.00729399
61.02 -0.00554435
61.055 0.0121663
61.09 -0.00204471
61.125 -0.000871228
61.16 0.02165
61.195 0.0319317
61.23 0.036638
61.265 0.0293178
61.3 0.0018792
61.335 -0.0100971
61.37 0.00684972
61.405 -0.00823173
61.44 0.0163323
61.475 -0.00293831
61.51 0.0146734
61.545 0.0129839
61.58 -0.00541406
61.615 -0.0167767
61.65 0.00200288
61.685 -0.0018654
61.72 0.00564615
61.755 0.0318419
61.79 0.0303995
61.825 0.065486
61.86 0.0638043
61.895 0.0647943
61.93 0.0456878
61.965 0.0239162
62 0.0117551
62.035 0.000553189
62.07 0.0221015
62.105 0.0108698
62.14 -0.00208175
62.175 0.0111249
62.21 0.00911489
62.245 -0.00297594
62.28 -0.0148432
62.315 -0.00366034
62.35 0.000180938
62.385 -0.0118906
62.42 0.00175395
62.455 0.00556352
62.49 0.0170696
62.525 0.0189596
62.56 0.0214111
62.595 0.0286695
62.63 0.0163814
62.665 0.0177752
62.7 0.0294246
62.735 0.00744787
62.77 0.0124097
62.805 -0.000444834
62.84 0.0130224
62.875 0.0503293
62.91 0.107659
62.945 0.149309
62.98 0.156453
63.015 0.145934
63.05 0.127893
63.085 0.108904
63.12 0.0704074
63.155 0.053061
63.19 0.0360817
63.225 0.0478982
63.26 0.0457011
63.295 0.0433067
63.33 0.0672856
63.365 0.102865
63.4 0.122376
63.435 0.117267
63.47 0.0841237
63.505 0.0561987
63.54 0.0436213
63.575 0.0373375
63.61 0.0160238
63.645 0.00515709
63.68 0.0114219
63.715 0.0108078
63.75 0.0211666
63.785 0.0116957
63.82 0.027824
63.855 0.0427672
63.89 0.0523239
63.925 0.0468295
63.96 0.0340259
63.995 0.0298073
64.03 0.0139681
64.065 0.00603016
64.1 0.00779857
64.135 -0.0031928
64.17 0.00237164
64.205 -0.00584594
64.24 0.00829614
64.275 0.00198846
64.31 -0.0112164
64.345 -0.0114124
64.38 -0.0114607
64.415 -0.0109793
64.45 0.0113431
64.485 0.0166926
64.52 0.00492279
64.555 0.00669581
64.59 0.0172963
64.625 0.00982653
64.66 0.0152246
64.695 0.00260454
64.73 0.0153225
64.765 0.00330601
64.8 0.00528007
64.835 -8.77349e-05
64.87 -0.00163702
64.905 -0.00529066
64.94 0.00955911
64.975 -0.0145469
65.01 -0.00838193
65.045 -0.00751165
65.08 -0.00738525
65.115 -0.00485461
65.15 0.00938472
65.185 0.013015
65.22 0.033406
65.255 0.055415
65.29 0.0454802
65.325 0.0488516
65.36 0.0277413
65.395 0.00881931
65.43 0.00603312
65.465 -0.0141734
65.5 0.000101111
65.535 -0.0118721
65.57 -0.0202506
65.585 -0.0216816