File: data/xrd/xy/2019-09-24T15_41_07.555823+00_00_LBL_B7.xy
'Id: "" Comment: "Integrate frame butane14dia_02_001.gfrmwith cursor Wedge Cursor #2" Operator: "UC Berkeley" Anode: "Co" Scantype: "TwoTheta" TimePerStep: "600"
13.83 -0.0251363
13.87 0.0366392
13.91 0.00200651
13.95 -0.018054
13.99 0.0233932
14.03 0.0559354
14.07 0.0321375
14.11 0.0317238
14.15 0.0449107
14.19 0.0739081
14.23 0.0317364
14.27 0.0971954
14.31 0.106447
14.35 0.146917
14.39 0.143147
14.43 0.274092
14.47 0.281825
14.51 0.370525
14.55 0.209188
14.59 0.21792
14.63 0.204769
14.67 0.107004
14.71 0.0831937
14.75 0.00972164
14.79 0.0429775
14.83 0.0245262
14.87 0.0480542
14.91 0.0633193
14.95 -0.0108185
14.99 0.039804
15.03 0.00680814
15.07 0.0306498
15.11 0.0509884
15.15 0.0399934
15.19 0.0368586
15.23 0.0442499
15.27 0.0483402
15.31 0.0149179
15.35 0.0248306
15.39 0.0175743
15.43 0.0337201
15.47 0.0516063
15.51 0.00685091
15.55 0.0264886
15.59 0.0392332
15.63 0.0612596
15.67 0.0237634
15.71 0.0321212
15.75 0.0223583
15.79 0.0352254
15.83 0.0305975
15.87 0.0116497
15.91 0.0145744
15.95 0.061792
15.99 0.0354796
16.03 0.0170204
16.07 0.0412096
16.11 0.0257213
16.15 0.0195192
16.19 0.00616029
16.23 0.0274086
16.27 0.0488716
16.31 0.00165703
16.35 0.0360276
16.39 0.044248
16.43 0.0422391
16.47 0.0362785
16.51 0.0113422
16.55 0.0672119
16.59 0.0167507
16.63 0.0455738
16.67 0.00383312
16.71 0.0304117
16.75 0.018136
16.79 0.0372483
16.83 0.0379292
16.87 0.0474942
16.91 0.0453515
16.95 0.0614863
16.99 0.0676757
17.03 0.153508
17.07 0.262845
17.11 0.349331
17.15 0.594801
17.19 0.692622
17.23 0.74912
17.27 0.540857
17.31 0.451252
17.35 0.190499
17.39 0.128028
17.43 0.035762
17.47 0.0516887
17.51 0.0342459
17.55 0.0475725
17.59 0.0113233
17.63 0.0602355
17.67 0.00687171
17.71 -0.0059289
17.75 0.00303955
17.79 0.0351706
17.83 0.0363539
17.87 0.0109258
17.91 0.0105329
17.95 0.00332574
17.99 0.0015266
18.03 0.0430066
18.07 0.0430711
18.11 0.0159539
18.15 0.0409596
18.19 0.00928774
18.23 -0.0213771
18.27 0.0299235
18.31 0.074128
18.35 0.0392969
18.39 0.0482498
18.43 0.0212987
18.47 0.0344178
18.51 -0.0136974
18.55 0.0601687
18.59 0.0193381
18.63 0.0482399
18.67 -0.00910203
18.71 0.0178648
18.75 0.0189172
18.79 0.030286
18.83 0.0339309
18.87 0.0144534
18.91 0.0042246
18.95 0.0466605
18.99 0.0149605
19.03 0.00522669
19.07 0.0338846
19.11 0.0234414
19.15 0.0154983
19.19 0.00857385
19.23 0.0101719
19.27 0.00217615
19.31 0.0389388
19.35 0.0443968
19.39 0.0133022
19.43 -0.000443771
19.47 0.0525271
19.51 0.0154294
19.55 0.040848
19.59 0.0348694
19.63 0.0204487
19.67 -0.0141025
19.71 -0.0148692
19.75 0.0258449
19.79 0.0172889
19.83 0.0304764
19.87 0.0175505
19.91 0.0335355
19.95 0.0176738
19.99 -0.0102097
20.03 0.0451612
20.07 0.0305532
20.11 0.0685377
20.15 0.0331718
20.19 0.0258655
20.23 0.0116313
20.27 -0.0100856
20.31 0.00807461
20.35 0.0171586
20.39 0.0230159
20.43 0.0591996
20.47 0.0227664
20.51 0.03213
20.55 -0.0109
20.59 0.00459023
20.63 0.0266955
20.67 0.0994935
20.71 0.074501
20.75 0.139751
20.79 0.150831
20.83 0.215654
20.87 0.203954
20.91 0.203005
20.95 0.235966
20.99 0.23364
21.03 0.355859
21.07 0.389625
21.11 0.385281
21.15 0.360986
21.19 0.230261
21.23 0.106923
21.27 0.0463586
21.31 0.0663617
21.35 0.0335046
21.39 0.0384728
21.43 0.0276019
21.47 0.0162189
21.51 -0.00462033
21.55 0.0382762
21.59 0.0493494
21.63 0.0178544
21.67 0.0144272
21.71 0.00937562
21.75 0.00859262
21.79 0.0293035
21.83 0.0211975
21.87 0.01468
21.91 0.0647256
21.95 0.0426563
21.99 0.0245431
22.03 0.0748
22.07 0.0111932
22.11 -0.00924542
22.15 0.00912509
22.19 0.0127475
22.23 0.0370786
22.27 0.0124105
22.31 0.0167127
22.35 0.0298906
22.39 0.0243643
22.43 0.0416962
22.47 -0.00537516
22.51 0.0273398
22.55 -0.000855109
22.59 0.0364978
22.63 0.0291504
22.67 0.0363773
22.71 0.00808169
22.75 0.0195296
22.79 0.0334195
22.83 0.00894817
22.87 -0.00190746
22.91 0.0353754
22.95 0.0232917
22.99 0.0111279
23.03 0.00413164
23.07 0.0108451
23.11 0.00406746
23.15 0.00382409
23.19 0.00639585
23.23 0.00584749
23.27 0.029964
23.31 0.0226156
23.35 0.0320197
23.39 0.0333816
23.43 0.0335806
23.47 0.0406374
23.51 0.0418342
23.55 0.0301674
23.59 0.0894446
23.63 0.20378
23.67 0.316787
23.71 0.295132
23.75 0.169996
23.79 0.042509
23.83 -0.000673846
23.87 -0.00442547
23.91 0.00220909
23.95 0.0289107
23.99 0.0710066
24.03 0.0680955
24.07 0.108472
24.11 0.0974238
24.15 0.141174
24.19 0.148392
24.23 0.0966801
24.27 0.0895599
24.31 0.0477901
24.35 0.0587351
24.39 0.0296054
24.43 -0.0118732
24.47 -0.00369177
24.51 0.00852381
24.55 0.00618038
24.59 0.0302542
24.63 0.0192989
24.67 0.0242837
24.71 0.0217202
24.75 0.00552769
24.79 0.0732304
24.83 0.145375
24.87 0.251906
24.91 0.46963
24.95 0.578199
24.99 0.629077
25.03 0.51505
25.07 0.340457
25.11 0.179773
25.15 0.115497
25.19 0.0940342
25.23 0.0868157
25.27 0.0914241
25.31 0.0728445
25.35 0.0357056
25.39 0.0258961
25.43 0.0290811
25.47 0.0108398
25.51 0.00142001
25.55 0.0280037
25.59 -0.00235976
25.63 0.0101593
25.67 0.0106104
25.71 0.0051667
25.75 0.0303602
25.79 0.0103899
25.83 0.0182252
25.87 0.0543263
25.91 0.110778
25.95 0.168074
25.99 0.31475
26.03 0.605551
26.07 0.964569
26.11 1.19247
26.15 1.12309
26.19 0.910974
26.23 0.551581
26.27 0.378853
26.31 0.335539
26.35 0.395709
26.39 0.554138
26.43 0.602989
26.47 0.551238
26.51 0.414597
26.55 0.269136
26.59 0.160652
26.63 0.0853872
26.67 0.0385356
26.71 0.0270016
26.75 0.0276226
26.79 0.0311311
26.83 0.00829445
26.87 0.019966
26.91 0.00769041
26.95 0.0325156
26.99 0.0225547
27.03 0.0365929
27.07 0.0592629
27.11 0.0677126
27.15 0.0284727
27.19 0.0648158
27.23 0.0375142
27.27 0.069064
27.31 0.0487467
27.35 0.00947306
27.39 0.00884738
27.43 0.00561523
27.47 0.0188268
27.51 0.0209412
27.55 0.0333406
27.59 0.0025693
27.63 -0.00941352
27.67 0.00292344
27.71 0.0227261
27.75 0.0188736
27.79 0.028534
27.83 0.00871542
27.87 0.0867486
27.91 0.0938493
27.95 0.15592
27.99 0.232555
28.03 0.302817
28.07 0.430555
28.11 0.527772
28.15 0.523674
28.19 0.323704
28.23 0.208268
28.27 0.198298
28.31 0.307252
28.35 0.55679
28.39 1.12075
28.43 2.10881
28.47 3.18813
28.51 3.77591
28.55 3.64332
28.59 2.47379
28.63 1.32893
28.67 0.6644
28.71 0.378682
28.75 0.210542
28.79 0.174622
28.83 0.148649
28.87 0.194467
28.91 0.225029
28.95 0.291257
28.99 0.279311
29.03 0.29404
29.07 0.190358
29.11 0.094976
29.15 0.0784063
29.19 0.049747
29.23 0.0559111
29.27 0.0428723
29.31 0.0220244
29.35 0.00473007
29.39 0.0363254
29.43 0.030392
29.47 0.00310441
29.51 -0.00417153
29.55 -0.00361651
29.59 0.0146964
29.63 0.0317393
29.67 -0.0112724
29.71 0.0474878
29.75 0.0160839
29.79 0.0442871
29.83 0.0450916
29.87 0.0375017
29.91 0.0720477
29.95 0.177196
29.99 0.216206
30.03 0.257348
30.07 0.280088
30.11 0.305384
30.15 0.243549
30.19 0.174228
30.23 0.15152
30.27 0.151987
30.31 0.163519
30.35 0.202725
30.39 0.21419
30.43 0.200173
30.47 0.19112
30.51 0.223742
30.55 0.293768
30.59 0.376999
30.63 0.344779
30.67 0.332209
30.71 0.241152
30.75 0.14713
30.79 0.084765
30.83 0.0393679
30.87 0.0169864
30.91 0.00690662
30.95 -0.00442871
30.99 0.0101254
31.03 0.0187577
31.07 -0.0222255
31.11 0.00906444
31.15 -0.0193639
31.19 0.0153396
31.23 0.014386
31.27 -0.00415049
31.31 0.0173091
31.35 -0.00268659
31.39 -0.00945017
31.43 0.0150566
31.47 0.020772
31.51 0.0171642
31.55 0.021803
31.59 0.0317625
31.63 0.044589
31.67 0.045047
31.71 0.0344286
31.75 0.0549476
31.79 0.0644232
31.83 0.0292896
31.87 -0.00716064
31.91 -0.00570423
31.95 -0.0121695
31.99 -0.00644267
32.03 -0.0104963
32.07 0.0127964
32.11 -0.0152905
32.15 0.00111136
32.19 0.000551818
32.23 0.0119975
32.27 0.0245552
32.31 0.0582291
32.35 0.114633
32.39 0.192322
32.43 0.294926
32.47 0.371853
32.51 0.513911
32.55 0.517576
32.59 0.432336
32.63 0.313494
32.67 0.233388
32.71 0.142315
32.75 0.094621
32.79 0.0653049
32.83 0.0691424
32.87 0.0895662
32.91 0.0504958
32.95 0.0756563
32.99 0.0445232
33.03 0.0463739
33.07 0.0128262
33.11 0.0185202
33.15 0.0552364
33.19 0.02219
33.23 0.0653739
33.27 0.0684837
33.31 0.0526486
33.35 0.0392256
33.39 0.0377704
33.43 0.00776543
33.47 0.0220269
33.51 -0.0145403
33.55 0.0133227
33.59 0.00479048
33.63 0.00465477
33.67 -0.00954044
33.71 0.00272765
33.75 -0.00879916
33.79 -0.00181808
33.83 -0.00404945
33.87 -0.00965778
33.91 0.00628678
33.95 -0.00779723
33.99 0.0127902
34.03 0.0312227
34.07 0.019431
34.11 0.0624426
34.15 0.088549
34.19 0.103689
34.23 0.0950305
34.27 0.0911735
34.31 0.0776509
34.35 0.0819415
34.39 0.083816
34.43 0.0984945
34.47 0.142618
34.51 0.162032
34.55 0.270901
34.59 0.377173
34.63 0.616016
34.67 1.05201
34.71 1.74846
34.75 2.80969
34.79 3.81036
34.83 4.24012
34.87 3.88089
34.91 2.902
34.95 1.8701
34.99 1.00821
35.03 0.450329
35.07 0.205143
35.11 0.109876
35.15 0.0603599
35.19 0.0433373
35.23 0.0310473
35.27 0.0185919
35.31 0.0211807
35.35 0.0163536
35.39 0.00331158
35.43 0.021591
35.47 0.0329331
35.51 0.0253321
35.55 0.0429184
35.59 0.0381695
35.63 0.0347162
35.67 0.033178
35.71 0.0151608
35.75 0.0100189
35.79 -0.00343642
35.83 -0.00117156
35.87 -0.00271197
35.91 -0.00483113
35.95 -0.0105399
35.99 0.00568961
36.03 0.0120003
36.07 0.0101773
36.11 0.0108009
36.15 0.0467445
36.19 0.0622891
36.23 0.0700775
36.27 0.0760273
36.31 0.0937457
36.35 0.0859274
36.39 0.07687
36.43 0.0660086
36.47 0.0821973
36.51 0.0927973
36.55 0.137121
36.59 0.247045
36.63 0.403374
36.67 0.688427
36.71 1.09327
36.75 1.69574
36.79 2.25206
36.83 2.40419
36.87 2.18414
36.91 1.62871
36.95 1.08905
36.99 0.637883
37.03 0.330641
37.07 0.164763
37.11 0.0947227
37.15 0.0650568
37.19 0.0735418
37.23 0.0888795
37.27 0.0961389
37.31 0.120668
37.35 0.154194
37.39 0.205497
37.43 0.235746
37.47 0.244865
37.51 0.215984
37.55 0.214141
37.59 0.178953
37.63 0.132637
37.67 0.0867985
37.71 0.0339993
37.75 0.0550982
37.79 0.0332899
37.83 0.0151264
37.87 0.0239863
37.91 0.0219192
37.95 0.00982372
37.99 0.017845
38.03 0.00924723
38.07 -0.0108687
38.11 0.00562557
38.15 -0.013184
38.19 -0.000504568
38.23 -0.020348
38.27 -0.0120852
38.31 -0.00505052
38.35 -0.00458861
38.39 0.00139701
38.43 0.0260231
38.47 0.00311414
38.51 0.00925562
38.55 0.0177672
38.59 0.012918
38.63 -0.0072305
38.67 0.00977236
38.71 0.00167223
38.75 0.0176241
38.79 0.00903857
38.83 0.0178321
38.87 0.0336328
38.91 0.0191902
38.95 0.0164262
38.99 0.00202028
39.03 -0.00105805
39.07 -0.000245787
39.11 -0.0202344
39.15 0.0117993
39.19 -0.00235931
39.23 0.00146511
39.27 0.00864723
39.31 0.0175314
39.35 0.0134651
39.39 0.0169407
39.43 0.035317
39.47 0.0615962
39.51 0.115913
39.55 0.187526
39.59 0.276363
39.63 0.373994
39.67 0.394249
39.71 0.362559
39.75 0.249563
39.79 0.148745
39.83 0.0658437
39.87 0.0393092
39.91 -0.00147741
39.95 0.0204433
39.99 -0.00621839
40.03 -0.0107727
40.07 -0.0142719
40.11 -0.00947049
40.15 -0.00807225
40.19 -0.00456003
40.23 0.0106467
40.27 0.0308877
40.31 0.0578299
40.35 0.0658854
40.39 0.0687471
40.43 0.0990333
40.47 0.107445
40.51 0.10727
40.55 0.0978881
40.59 0.0650254
40.63 0.0493234
40.67 0.0491455
40.71 0.0282409
40.75 0.0380854
40.79 0.0486429
40.83 0.0294428
40.87 0.0323096
40.91 0.0229607
40.95 0.0183887
40.99 0.000821094
41.03 0.00533909
41.07 -0.00685097
41.11 0.0028322
41.15 0.0094355
41.19 -0.00722239
41.23 -0.0144237
41.27 -0.0047276
41.31 0.00807114
41.35 0.00465423
41.39 0.0273031
41.43 0.0643781
41.47 0.100987
41.51 0.168924
41.55 0.23638
41.59 0.321137
41.63 0.377438
41.67 0.34013
41.71 0.273118
41.75 0.183368
41.79 0.120473
41.83 0.0468172
41.87 0.0276592
41.91 -0.0079866
41.95 -0.00332652
41.99 0.0229001
42.03 0.0383094
42.07 0.0855029
42.11 0.16875
42.15 0.288895
42.19 0.431967
42.23 0.555567
42.27 0.662577
42.31 0.615573
42.35 0.5537
42.39 0.437452
42.43 0.302449
42.47 0.173621
42.51 0.107258
42.55 0.057341
42.59 0.020723
42.63 0.0227185
42.67 -0.000887527
42.71 0.0233038
42.75 0.00729591
42.79 0.0120296
42.83 0.0236821
42.87 0.00428694
42.91 0.0324293
42.95 0.0343261
42.99 0.0463066
43.03 0.0428526
43.07 0.0167845
43.11 0.0150187
43.15 0.0341846
43.19 0.0220881
43.23 -0.00457996
43.27 0.0153969
43.31 -0.00601594
43.35 -0.00449967
43.39 0.0175611
43.43 0.0159075
43.47 0.00938927
43.51 0.00693572
43.55 0.0214868
43.59 -0.0083983
43.63 0.0114369
43.67 0.0104844
43.71 0.00104555
43.75 0.0141826
43.79 -0.00421466
43.83 -0.0185864
43.87 0.016615
43.91 0.0240426
43.95 0.0268973
43.99 0.0211001
44.03 0.0227759
44.07 0.0279611
44.11 0.0148617
44.15 0.0361963
44.19 0.008992
44.23 0.0407642
44.27 0.00337277
44.31 0.054429
44.35 0.051837
44.39 0.138608
44.43 0.240395
44.47 0.272524
44.51 0.268689
44.55 0.259597
44.59 0.221584
44.63 0.209181
44.67 0.224523
44.71 0.189465
44.75 0.193924
44.79 0.201082
44.83 0.180591
44.87 0.202532
44.91 0.223672
44.95 0.214575
44.99 0.199103
45.03 0.166349
45.07 0.164492
45.11 0.114306
45.15 0.119634
45.19 0.123037
45.23 0.142442
45.27 0.144061
45.31 0.158305
45.35 0.146541
45.39 0.191364
45.43 0.194098
45.47 0.211058
45.51 0.214622
45.55 0.238741
45.59 0.266115
45.63 0.334485
45.67 0.3638
45.71 0.343584
45.75 0.271506
45.79 0.199452
45.83 0.155625
45.87 0.133004
45.91 0.131134
45.95 0.167951
45.99 0.220243
46.03 0.289774
46.07 0.336862
46.11 0.366024
46.15 0.356087
46.19 0.31047
46.23 0.254135
46.27 0.196762
46.31 0.147595
46.35 0.11285
46.39 0.0643559
46.43 0.0197551
46.47 0.00172891
46.51 -0.00698699
46.55 -0.00693449
46.59 -0.015097
46.63 0.00843239
46.67 0.0035784
46.71 -0.00597275
46.75 0.00477836
46.79 -0.00503876
46.83 -0.0151261
46.87 -0.013804
46.91 0.00601469
46.95 -0.0134582
46.99 -0.0184304
47.03 0.00484534
47.07 -0.00442058
47.11 -0.0125211
47.15 0.00139686
47.19 -0.0115737
47.23 -0.00612885
47.27 0.0232887
47.31 0.00519203
47.35 0.0145063
47.39 0.0289729
47.43 0.0774425
47.47 0.102983
47.51 0.142745
47.55 0.171192
47.59 0.224415
47.63 0.19746
47.67 0.184553
47.71 0.159542
47.75 0.13965
47.79 0.0927171
47.83 0.0784577
47.87 0.0629721
47.91 0.0497377
47.95 0.0542321
47.99 0.0507449
48.03 0.0506644
48.07 0.045694
48.11 0.0419746
48.15 0.0406166
48.19 0.0380883
48.23 0.0306042
48.27 0.0245451
48.31 0.00629593
48.35 -0.00854047
48.39 -0.0150657
48.43 -0.00992982
48.47 -0.00863844
48.51 -0.018499
48.55 -0.0061287
48.59 -0.00580226
48.63 0.0189263
48.67 0.0163534
48.71 0.033067
48.75 0.0340008
48.79 0.0461795
48.83 0.0467047
48.87 0.0708747
48.91 0.0503237
48.95 0.0782807
48.99 0.0645432
49.03 0.0775219
49.07 0.067249
49.11 0.0801842
49.15 0.0818876
49.19 0.114479
49.23 0.156134
49.27 0.242978
49.31 0.359058
49.35 0.437437
49.39 0.428057
49.43 0.3876
49.47 0.36765
49.51 0.334081
49.55 0.293275
49.59 0.249206
49.63 0.188108
49.67 0.131459
49.71 0.097545
49.75 0.0778917
49.79 0.0565155
49.83 0.0463102
49.87 0.0397017
49.91 0.026101
49.95 0.0239263
49.99 0.0201775
50.03 0.0220378
50.07 0.0235503
50.11 0.0304059
50.15 0.0470641
50.19 0.0813279
50.23 0.115702
50.27 0.153549
50.31 0.184549
50.35 0.291235
50.39 0.385787
50.43 0.460803
50.47 0.481365
50.51 0.447916
50.55 0.346371
50.59 0.277578
50.63 0.179141
50.67 0.124085
50.71 0.085227
50.75 0.0484856
50.79 0.0243958
50.83 0.00792646
50.87 0.00775034
50.91 0.000953252
50.95 -0.0130081
50.99 -0.0134367
51.03 0.00135291
51.07 -0.00473291
51.11 -0.00898975
51.15 -0.00220055
51.19 -0.00299217
51.23 0.0124268
51.27 -6.74988e-06
51.31 0.0115365
51.35 -0.00655778
51.39 0.00234796
51.43 0.0142816
51.47 -0.00736095
51.51 -0.00130549
51.55 -0.0097015
51.59 0.000930416
51.63 0.00998357
51.67 -0.00207566
51.71 0.0203089
51.75 0.0322901
51.79 0.0466315
51.83 0.0427756
51.87 0.0800556
51.91 0.0513258
51.95 0.0681301
51.99 0.0493536
52.03 0.0304357
52.07 0.0317255
52.11 0.00851099
52.15 -0.00976644
52.19 -0.0071137
52.23 -0.013835
52.27 -0.00698945
52.31 -0.0126896
52.35 -0.00534301
52.39 -0.0149627
52.43 -0.00771694
52.47 -0.0129968
52.51 -0.00944058
52.55 0.00241115
52.59 -0.000282699
52.63 0.0127296
52.67 0.00189251
52.71 0.0147362
52.75 0.01495
52.79 0.0262174
52.83 0.0188983
52.87 0.030458
52.91 0.0412133
52.95 0.0259311
52.99 0.0449255
53.03 0.0463069
53.07 0.0605474
53.11 0.098685
53.15 0.126419
53.19 0.212489
53.23 0.328051
53.27 0.547292
53.31 0.776295
53.35 1.07174
53.39 1.25796
53.43 1.27829
53.47 1.13673
53.51 0.905995
53.55 0.681936
53.59 0.483245
53.63 0.332012
53.67 0.217206
53.71 0.174664
53.75 0.159823
53.79 0.146396
53.83 0.156161
53.87 0.158573
53.91 0.149103
53.95 0.146861
53.99 0.132107
54.03 0.0996939
54.07 0.101367
54.11 0.0708312
54.15 0.0697689
54.19 0.0751263
54.23 0.0826243
54.27 0.112761
54.31 0.11898
54.35 0.145794
54.39 0.140002
54.43 0.124847
54.47 0.117229
54.51 0.10627
54.55 0.0648384
54.59 0.039874
54.63 0.0326033
54.67 0.00278104
54.71 -0.00540551
54.75 -0.00883307
54.79 -0.00788912
54.83 -0.00342026
54.87 0.002841
54.91 0.0233839
54.95 0.010084
54.99 0.0186695
55.03 0.0274088
55.07 0.0573099
55.11 0.0838687
55.15 0.156069
55.19 0.212744
55.23 0.255654
55.27 0.286315
55.31 0.251732
55.35 0.218764
55.39 0.146666
55.43 0.0658039
55.47 0.0536307
55.51 0.0380594
55.55 0.0246135
55.59 0.0131502
55.63 -0.00356445
55.67 0.00272396
55.71 -0.014492
55.75 -0.00154771
55.79 0.000604156
55.83 -0.009065
55.87 -0.00673576
55.91 0.00394874
55.95 0.00969995
55.99 -0.0022093
56.03 -0.00260656
56.07 0.000385218
56.11 0.0213688
56.15 0.0469025
56.19 0.0515678
56.23 0.085183
56.27 0.120568
56.31 0.17515
56.35 0.231794
56.39 0.28399
56.43 0.334168
56.47 0.382809
56.51 0.415426
56.55 0.440794
56.59 0.43835
56.63 0.381915
56.67 0.309502
56.71 0.233713
56.75 0.167712
56.79 0.140406
56.83 0.103604
56.87 0.0711791
56.91 0.0819602
56.95 0.054043
56.99 0.0477282
57.03 0.0433278
57.07 0.040474
57.11 0.0235601
57.15 0.0185795
57.19 0.0180241
57.23 0.000697414
57.27 0.0130236
57.31 -0.00817087
57.35 -0.00587374
57.39 -0.00751377
57.43 -0.0105904
57.47 -0.00201283
57.51 0.00489996
57.55 0.0260539
57.59 0.0125399
57.63 0.0202477
57.67 0.0286047
57.71 0.0225221
57.75 0.0365351
57.79 0.0345587
57.83 0.0567278
57.87 0.0665755
57.91 0.0645253
57.95 0.0735098
57.99 0.0503473
58.03 0.0710427
58.07 0.0762557
58.11 0.102737
58.15 0.0925607
58.19 0.0961577
58.23 0.0831914
58.27 0.0944657
58.31 0.0791161
58.35 0.0861509
58.39 0.0786652
58.43 0.0505146
58.47 0.0472857
58.51 0.0411229
58.55 0.0167142
58.59 -0.00200532
58.63 0.00243373
58.67 0.0245836
58.71 0.0157944
58.75 0.051448
58.79 0.0743652
58.83 0.0953785
58.87 0.100209
58.91 0.0939826
58.95 0.123545
58.99 0.148049
59.03 0.146982
59.07 0.168607
59.11 0.120323
59.15 0.120719
59.19 0.104438
59.23 0.0948492
59.27 0.0693333
59.31 0.0773239
59.35 0.06363
59.39 0.0650575
59.43 0.0668743
59.47 0.0563919
59.51 0.0410943
59.55 0.0550453
59.59 0.0389474
59.63 0.0397752
59.67 0.018383
59.71 0.0157278
59.75 0.028491
59.79 0.00256038
59.83 0.00438122
59.87 -0.00400263
59.91 -0.0163652
59.95 0.011365
59.99 0.00955785
60.03 -0.00839213
60.07 0.0135029
60.11 0.00178244
60.15 0.0101258
60.19 0.0149037
60.23 -0.00134412
60.27 0.00376629
60.31 0.00702268
60.35 0.0237682
60.39 0.0239294
60.43 0.0223036
60.47 0.01423
60.51 0.0284102
60.55 0.0456548
60.59 0.0283788
60.63 0.0158697
60.67 0.0654723
60.71 0.0686598
60.75 0.040356
60.79 0.0497269
60.83 0.0671742
60.87 0.102382
60.91 0.115289
60.95 0.0979107
60.99 0.0910145
61.03 0.0579497
61.07 0.0588585
61.11 0.0278982
61.15 0.00724276
61.19 0.0144983
61.23 0.00574072
61.27 0.00692443
61.31 -0.00804869
61.35 0.00218701
61.39 -0.0108773
61.43 -0.00331624
61.47 -0.00313957
61.51 -0.0115004
61.55 0.00635106
61.59 0.00462523
61.63 0.00617787
61.67 -0.000573431
61.71 0.0134906
61.75 0.026685
61.79 0.0272094
61.83 0.0486712
61.87 0.0502314
61.91 0.0539424
61.95 0.0678382
61.99 0.0504452
62.03 0.0695889
62.07 0.0580147
62.11 0.0639496
62.15 0.0815396
62.19 0.0810099
62.23 0.0629931
62.27 0.0738877
62.31 0.0466088
62.35 0.0502809
62.39 0.0436806
62.43 0.0423526
62.47 0.0254937
62.51 0.0246539
62.55 0.0175614
62.59 0.0240591
62.63 0.00453178
62.67 0.0255397
62.71 0.0127823
62.75 0.00600538
62.79 0.00960884
62.83 -0.00410416
62.87 -0.00558196
62.91 0.00391482
62.95 0.0109076
62.99 -0.00275102
63.03 0.00915835
63.07 -0.00400929
63.11 0.0233411
63.15 0.015384
63.19 0.00178263
63.23 0.00497982
63.27 0.0100855
63.31 0.0291115
63.35 0.00652642
63.39 0.00595527
63.43 0.0178194
63.47 0.0163264
63.51 0.00885705
63.55 0.00592226
63.59 -0.0103841
63.63 0.00691997
63.67 -0.000663534
63.71 0.00622839
63.75 0.0412614
63.79 -0.00414215
63.83 0.0134931
63.87 0.00367168
63.91 -0.00135802
63.95 0.0155375
63.99 0.00831369
64.03 0.00470731
64.07 0.0140551
64.11 0.0192377
64.15 0.00601513
64.19 0.0442263
64.23 0.0249584
64.27 0.0263241
64.31 0.0114074
64.35 0.0264517
64.39 0.029589
64.43 0.0406187
64.47 0.0347042
64.51 0.0414181
64.55 0.0188116
64.59 0.0556243
64.63 0.056747
64.67 0.0221694
64.71 0.0383746
64.75 0.0321077
64.79 0.0433733
64.83 0.00885979
64.87 0.0182804
64.91 0.0172687
64.95 0.0218298
64.99 0.010293
65.03 0.00711588
65.07 0.00541533
65.11 -0.00201547
65.15 0.0143809
65.19 -0.00391608
65.23 0.00939448
65.27 -0.00491507
65.31 -0.00400698
65.35 -0.00960506
65.39 -0.00975575
65.43 0.00924113
65.47 -0.0125585
65.51 -0.0125591
65.55 -0.000862674
65.59 0.0190159
65.63 -0.000729625
65.67 0.00941138
65.71 0.0145822
65.75 -8.02838e-05
65.79 0.0220026
65.83 0.0230261
65.87 0.0279017
65.91 0.00917204
65.95 0.0206034
65.99 0.0179447
66.03 0.0115087
66.07 0.0140499
66.11 0.0156127
66.15 0.0248229
66.19 0.0247268
66.23 0.0397706
66.27 0.0334798
66.31 0.0496069
66.35 0.0494915
66.39 0.0390303
66.43 0.0641664
66.47 0.106755
66.51 0.154322
66.55 0.260499
66.59 0.28328
66.63 0.253169
66.67 0.207545
66.71 0.126126
66.75 0.0849383
66.79 0.0336444
66.83 0.0230594
66.87 0.00121912
66.91 0.00159095
66.95 0.00479576
66.99 -0.00936198
67.03 0.00522482
67.07 0.00402521
67.11 0.00144347
67.15 -0.0152009
67.19 -0.00724541
67.23 0.000707014
67.27 -0.00239217
67.31 0.00199765
67.35 -0.00239872
67.39 0.00307012
67.43 0.00582378
67.47 -0.00987172
67.51 -0.0133031
67.55 -0.00349369
67.59 0.00793205
67.63 0.0183961
67.67 0.0033209
67.71 0.00292734
67.75 0.0101701
67.79 0.00563002
67.83 0.0147335
67.87 0.0383102
67.91 0.0531964
67.95 0.0532165
67.99 0.0532272
68.03 0.0550015
68.07 0.0622012
68.11 0.0704702
68.15 0.122689
68.19 0.144999
68.23 0.153966
68.27 0.17598
68.31 0.183232
68.35 0.21284
68.39 0.215799
68.43 0.229999
68.47 0.242995
68.51 0.236671
68.55 0.228622
68.59 0.165777
68.63 0.132759
68.67 0.110363
68.71 0.10726
68.75 0.0464962
68.79 0.0317457
68.83 0.0150722
68.87 0.00607046
68.91 -0.00432841
68.95 0.00282623
68.99 -0.0046271
69.03 -0.0143269
69.07 -0.000530773
69.11 0.0126131
69.15 0.00644194
69.19 0.00885448
69.23 -0.00229674
69.27 -0.00195838
69.31 5.76356e-05
69.35 -0.00254431
69.39 0.00945285
69.43 0.0123709
69.47 0.0298082
69.51 0.0859734
69.55 0.145261
69.59 0.227953
69.63 0.235018
69.67 0.169865
69.71 0.144363
69.75 0.0817714
69.79 0.0381218
69.83 0.028942
69.87 0.000141908
69.91 0.010822
69.95 0.026509
69.99 0.0361733
70.03 0.0464956
70.07 0.0837395
70.11 0.107159
70.15 0.123448
70.19 0.137814
70.23 0.136217
70.27 0.140144
70.31 0.122272
70.35 0.10618
70.39 0.0852459
70.43 0.0536771
70.47 0.0735716
70.51 0.0641085
70.55 0.0615633
70.59 0.0750613
70.63 0.080754
70.67 0.0953895
70.71 0.105864
70.75 0.134453
70.79 0.140681
70.83 0.16622
70.87 0.157572
70.91 0.159565
70.95 0.168466
70.99 0.186143
71.03 0.153566
71.07 0.139043
71.11 0.122859
71.15 0.0907261
71.19 0.0663523
71.23 0.0537131
71.27 0.0418082
71.31 0.0275434
71.35 -0.00310114
71.39 0.0145205
71.43 0.0100357
71.47 -0.0157735