File: data/xrd/xy/2019-09-05T19_43_09.232228+00_00_LBL_G5.xy
'Id: "" Comment: "Integrate frame Morph_01_001.gfrmwith cursor Wedge Cursor #1" Operator: "UC Berkeley" Anode: "Co" Scantype: "TwoTheta" TimePerStep: "500"
13.28 -0.0440599
13.325 0.265641
13.37 0.54626
13.415 0.82585
13.46 1.16616
13.505 1.36418
13.55 1.35615
13.595 1.0859
13.64 0.815141
13.685 0.454748
13.73 0.107653
13.775 0.0503218
13.82 -0.0215421
13.865 -0.0252034
13.91 -0.0248875
13.955 0.0523819
14 -0.010243
14.045 0.059416
14.09 -0.00658325
14.135 0.0289654
14.18 0.0628414
14.225 0.046145
14.27 0.067805
14.315 0.028837
14.36 0.0418288
14.405 -0.00224031
14.45 0.148965
14.495 0.0666267
14.54 0.0223482
14.585 0.0935379
14.63 0.0386253
14.675 0.12797
14.72 0.0246846
14.765 0.0774917
14.81 0.0472518
14.855 0.118259
14.9 0.0259389
14.945 0.0768585
14.99 0.0891131
15.035 0.10487
15.08 0.066003
15.125 0.0180028
15.17 0.0750802
15.215 0.0788329
15.26 0.0562689
15.305 0.0640823
15.35 0.0387545
15.395 0.0336072
15.44 0.0999145
15.485 0.0210276
15.53 0.0968956
15.575 0.0566466
15.62 0.0432342
15.665 0.0583955
15.71 0.0588088
15.755 0.0888462
15.8 0.0169267
15.845 0.0215591
15.89 0.0226629
15.935 0.0196062
15.98 0.00953454
16.025 0.0175886
16.07 0.094972
16.115 0.0375486
16.16 0.0557015
16.205 0.0800528
16.25 0.0595362
16.295 0.0768543
16.34 0.0995566
16.385 0.0175666
16.43 0.0691847
16.475 0.0466978
16.52 0.0938088
16.565 0.0597285
16.61 0.0117811
16.655 0.0446607
16.7 -0.00318782
16.745 0.0259714
16.79 0.0337233
16.835 0.00931146
16.88 0.0225781
16.925 0.0263511
16.97 0.0475181
17.015 0.0823683
17.06 0.0536974
17.105 0.0311606
17.15 0.0931288
17.195 0.110912
17.24 0.056314
17.285 0.0500793
17.33 0.0207846
17.375 0.0604718
17.42 0.0217206
17.465 0.00358564
17.51 -0.00902966
17.555 0.0284358
17.6 0.0831876
17.645 0.0440643
17.69 0.0909133
17.735 0.0423585
17.78 0.0384137
17.825 0.0264545
17.87 0.0201366
17.915 0.0969004
17.96 0.0628078
18.005 0.0219393
18.05 0.0774558
18.095 0.124569
18.14 0.0493282
18.185 0.0677651
18.23 0.0455966
18.275 0.0781499
18.32 0.0447434
18.365 0.0691211
18.41 0.0809698
18.455 0.0330569
18.5 0.0742088
18.545 0.042472
18.59 0.0518201
18.635 0.0930232
18.68 0.0589887
18.725 0.0242314
18.77 0.0812996
18.815 0.0710572
18.86 0.0329859
18.905 0.0239319
18.95 0.0832862
18.995 0.0692365
19.04 0.144384
19.085 0.113765
19.13 0.0364634
19.175 0.0547263
19.22 0.0602852
19.265 0.0278433
19.31 0.001349
19.355 0.0670599
19.4 0.04455
19.445 0.0836596
19.49 0.0473958
19.535 0.0998978
19.58 0.0650369
19.625 0.00682336
19.67 0.0511413
19.715 0.0971492
19.76 0.0676331
19.805 0.0250829
19.85 0.0356799
19.895 0.0419686
19.94 0.0458624
19.985 0.00898341
20.03 0.0589741
20.075 0.0867575
20.12 0.0328036
20.165 0.0742024
20.21 0.100586
20.255 0.113389
20.3 0.0383384
20.345 0.0998907
20.39 0.0623531
20.435 0.0481669
20.48 0.0495514
20.525 0.0596441
20.57 0.0121139
20.615 0.064756
20.66 0.0809509
20.705 0.0702624
20.75 0.018395
20.795 0.0692979
20.84 0.0533556
20.885 0.0841194
20.93 0.0770573
20.975 0.0822288
21.02 0.0866965
21.065 0.0453757
21.11 0.0883074
21.155 0.0601554
21.2 -0.00644203
21.245 0.0792818
21.29 0.0525902
21.335 0.0882271
21.38 0.0982603
21.425 0.0566929
21.47 0.0225618
21.515 0.0415288
21.56 -0.00144396
21.605 0.0999239
21.65 0.0589389
21.695 0.0531084
21.74 0.0575401
21.785 0.0418399
21.83 0.0494818
21.875 0.0847844
21.92 0.0222964
21.965 0.127107
22.01 0.0813738
22.055 0.0534062
22.1 0.101494
22.145 0.0254459
22.19 0.143635
22.235 0.0680066
22.28 0.0400341
22.325 0.115732
22.37 0.0126897
22.415 0.0505071
22.46 0.0358972
22.505 0.062515
22.55 0.0942855
22.595 -0.00909425
22.64 0.0622857
22.685 0.0941788
22.73 0.0434597
22.775 0.0605844
22.82 0.0553006
22.865 -0.0213081
22.91 0.0670411
22.955 0.104828
23 0.0567637
23.045 0.0782459
23.09 0.00161206
23.135 0.0834003
23.18 0.054324
23.225 0.0323505
23.27 0.0296206
23.315 0.02433
23.36 0.0906091
23.405 0.106757
23.45 0.183896
23.495 0.120966
23.54 0.162508
23.585 0.106482
23.63 0.127113
23.675 0.115657
23.72 0.0536502
23.765 0.0384035
23.81 0.0569859
23.855 -0.028825
23.9 0.0357463
23.945 0.00168688
23.99 0.1049
24.035 0.0579377
24.08 0.0741908
24.125 0.0845102
24.17 0.0660346
24.215 0.0817702
24.26 0.0466655
24.305 0.0261991
24.35 0.024477
24.395 0.0576764
24.44 0.0706156
24.485 0.0750769
24.53 0.0574863
24.575 0.027793
24.62 0.0411367
24.665 0.0828258
24.71 -0.00764797
24.755 0.0270223
24.8 0.0202038
24.845 0.0544174
24.89 0.0191549
24.935 0.0619069
24.98 0.0673565
25.025 0.0480373
25.07 0.0922627
25.115 -0.0098543
25.16 0.0210103
25.205 0.0659121
25.25 0.102268
25.295 0.100888
25.34 0.0255538
25.385 0.00085765
25.43 0.0417189
25.475 0.0695
25.52 0.0549645
25.565 0.0428143
25.61 0.0887347
25.655 -0.00234693
25.7 0.0458056
25.745 0.00191397
25.79 0.0126627
25.835 0.0319036
25.88 0.0798532
25.925 0.0325468
25.97 0.067351
26.015 0.0428633
26.06 0.0196239
26.105 0.056927
26.15 0.0596951
26.195 0.0516082
26.24 0.0659304
26.285 0.0100632
26.33 0.0653055
26.375 0.0604159
26.42 -0.0118649
26.465 0.0666661
26.51 0.0136069
26.555 0.0497794
26.6 0.0677043
26.645 0.0531523
26.69 -0.0199769
26.735 0.0833454
26.78 0.0880028
26.825 0.0354004
26.87 0.0163839
26.915 0.0062724
26.96 0.0446245
27.005 0.0416618
27.05 0.104133
27.095 0.0972855
27.14 0.0357239
27.185 0.090426
27.23 0.110411
27.275 0.0544785
27.32 0.0252052
27.365 0.00923618
27.41 0.0884731
27.455 0.0149684
27.5 0.0814512
27.545 0.0700996
27.59 0.0248483
27.635 0.0349957
27.68 0.051514
27.725 0.0891493
27.77 0.0192065
27.815 0.023065
27.86 0.0489777
27.905 0.0356976
27.95 0.0408767
27.995 0.0898571
28.04 0.0659852
28.085 0.00297911
28.13 0.106418
28.175 0.0303832
28.22 0.0684887
28.265 0.085042
28.31 0.0640273
28.355 0.0353652
28.4 0.0268722
28.445 0.0192039
28.49 0.0434119
28.535 0.031298
28.58 0.00660071
28.625 0.100872
28.67 0.0922994
28.715 0.224242
28.76 0.31283
28.805 0.358241
28.85 0.27321
28.895 0.145217
28.94 0.0722013
28.985 0.0432804
29.03 0.0266646
29.075 -0.0122761
29.12 0.0284232
29.165 0.0312947
29.21 0.0178727
29.255 0.0246532
29.3 0.0530498
29.345 -0.0105031
29.39 0.00140603
29.435 0.0393991
29.48 -0.0150954
29.525 0.0219701
29.57 0.027005
29.615 -0.0131583
29.66 0.0389336
29.705 0.00589295
29.75 0.0534735
29.795 0.0485464
29.84 0.00136916
29.885 0.0611415
29.93 0.12246
29.975 0.180301
30.02 0.151978
30.065 0.25517
30.11 0.234086
30.155 0.166328
30.2 0.0825442
30.245 0.0529254
30.29 0.0467407
30.335 0.0359616
30.38 0.0702183
30.425 0.0848655
30.47 0.0483411
30.515 0.0183056
30.56 0.00970564
30.605 0.047204
30.65 0.0301667
30.695 0.0359421
30.74 0.0191461
30.785 0.0194205
30.83 0.0122956
30.875 -0.00439707
30.92 0.0487056
30.965 0.052159
31.01 0.00704465
31.055 -0.0212928
31.1 0.0492176
31.145 -0.0157146
31.19 0.0441404
31.235 0.0348895
31.28 0.0277013
31.325 0.0200632
31.37 0.0297103
31.415 0.039683
31.46 0.0411692
31.505 0.0578033
31.55 0.0342954
31.595 0.044145
31.64 0.00117331
31.685 0.0111669
31.73 0.060858
31.775 0.0319221
31.82 0.0455948
31.865 0.0325776
31.91 -0.00590457
31.955 0.0348302
32 0.0302098
32.045 0.0363671
32.09 0.0756374
32.135 0.0656323
32.18 0.0390592
32.225 0.0518327
32.27 0.036264
32.315 0.0203983
32.36 0.0174466
32.405 0.0236497
32.45 0.0109007
32.495 -0.0185458
32.54 -0.00805163
32.585 0.0252981
32.63 0.040268
32.675 0.0551412
32.72 0.0555577
32.765 -0.00275324
32.81 0.00253163
32.855 0.0361287
32.9 0.00772384
32.945 0.0623499
32.99 0.0466082
33.035 0.0322906
33.08 0.0492684
33.125 0.026191
33.17 0.0331352
33.215 0.000201368
33.26 0.0275681
33.305 0.0257332
33.35 0.0160881
33.395 0.027965
33.44 0.0164451
33.485 0.00489871
33.53 0.0357871
33.575 0.0473494
33.62 0.0523513
33.665 0.052347
33.71 0.039032
33.755 0.0503947
33.8 -0.0132918
33.845 0.0581171
33.89 0.0221841
33.935 0.0236749
33.98 0.054024
34.025 0.0312462
34.07 0.0329563
34.115 0.0270407
34.16 0.028195
34.205 -0.00816687
34.25 0.0277072
34.295 0.0214739
34.34 0.0308909
34.385 0.0915749
34.43 0.0448896
34.475 0.034442
34.52 0.0397779
34.565 0.0647152
34.61 0.0524981
34.655 0.125982
34.7 0.132741
34.745 0.137054
34.79 0.116911
34.835 0.107653
34.88 0.0865644
34.925 0.0564894
34.97 0.059683
35.015 0.0174875
35.06 0.021653
35.105 0.0252835
35.15 0.0409134
35.195 -0.00115672
35.24 0.0208834
35.285 0.00294358
35.33 0.0193611
35.375 0.0389521
35.42 0.0463944
35.465 0.0319218
35.51 0.000481319
35.555 0.0221488
35.6 0.0388389
35.645 -0.025498
35.69 0.0123124
35.735 0.0145294
35.78 0.0296622
35.825 -0.00170626
35.87 0.00391757
35.915 0.016669
35.96 0.0491255
36.005 0.0478066
36.05 0.0701242
36.095 0.118117
36.14 0.235923
36.185 0.335858
36.23 0.510094
36.275 0.527535
36.32 0.520559
36.365 0.424947
36.41 0.248429
36.455 0.14883
36.5 0.0714601
36.545 0.0207229
36.59 -0.00063199
36.635 0.0148941
36.68 0.0221293
36.725 -0.00795294
36.77 0.00755641
36.815 -0.000337011
36.86 0.028097
36.905 -0.00701658
36.95 0.00878704
36.995 0.0127023
37.04 -0.016974
37.085 0.00209109
37.13 0.0376112
37.175 0.0558675
37.22 0.110805
37.265 0.120695
37.31 0.185387
37.355 0.189782
37.4 0.187084
37.445 0.15755
37.49 0.125778
37.535 0.0972902
37.58 0.0570578
37.625 0.0668154
37.67 0.0414438
37.715 0.0444722
37.76 0.00757146
37.805 0.00662876
37.85 0.0133424
37.895 -0.00195671
37.94 0.00472827
37.985 0.0412268
38.03 -0.00696771
38.075 0.00761926
38.12 0.0105341
38.165 -0.00374557
38.21 -0.00643379
38.255 -0.00786558
38.3 0.0219068
38.345 0.0506557
38.39 0.0914296
38.435 0.0676541
38.48 0.0329213
38.525 0.0480316
38.57 0.0478199
38.615 0.0253219
38.66 0.0177908
38.705 0.0217637
38.75 -0.00427355
38.795 0.00247876
38.84 0.03082
38.885 -0.00183767
38.93 -0.00867939
38.975 0.00832459
39.02 -0.0153577
39.065 0.0451765
39.11 0.0176285
39.155 0.00813869
39.2 0.0181597
39.245 -0.0180781
39.29 0.012314
39.335 0.0170729
39.38 0.00513567
39.425 -0.00302311
39.47 -0.00379534
39.515 -0.0052878
39.56 -0.0198953
39.605 0.00360611
39.65 -0.0009271
39.695 0.0115599
39.74 0.0226232
39.785 0.00605114
39.83 -0.00188498
39.875 -0.00139396
39.92 0.0181349
39.965 0.00884418
40.01 0.030329
40.055 0.0164996
40.1 0.00470402
40.145 0.0526572
40.19 0.0393701
40.235 0.00115052
40.28 0.0190096
40.325 -0.00851691
40.37 0.00161284
40.415 0.0351634
40.46 0.0221289
40.505 0.0529237
40.55 0.0241289
40.595 0.0179353
40.64 0.0135344
40.685 -0.0131528
40.73 0.0419365
40.775 0.00200105
40.82 0.02405
40.865 0.0225337
40.91 0.0352612
40.955 0.0262172
41 -0.00130053
41.045 0.0443569
41.09 0.0179339
41.135 0.102016
41.18 0.0970014
41.225 0.210756
41.27 0.322782
41.315 0.412966
41.36 0.427447
41.405 0.412631
41.45 0.305045
41.495 0.189032
41.54 0.140774
41.585 0.0733273
41.63 0.0338468
41.675 0.0619125
41.72 0.0370478
41.765 0.0300154
41.81 0.0280296
41.855 0.0123442
41.9 0.0439428
41.945 -0.0230651
41.99 0.0341178
42.035 0.0047478
42.08 0.018629
42.125 0.0112589
42.17 0.02637
42.215 0.0428064
42.26 0.0204478
42.305 0.0363252
42.35 0.0333352
42.395 -0.00904945
42.44 -0.00732665
42.485 0.0348734
42.53 2.72772e-05
42.575 0.0175347
42.62 0.0292077
42.665 0.0342338
42.71 0.0325119
42.755 -0.00120584
42.8 0.0483519
42.845 0.0182096
42.89 0.061773
42.935 0.0494076
42.98 0.0246934
43.025 0.016729
43.07 -0.00343067
43.115 0.0257519
43.16 0.0179324
43.205 0.0118815
43.25 0.0238006
43.295 -0.00757421
43.34 0.0276817
43.385 0.00103628
43.43 0.030247
43.475 0.0122186
43.52 0.00391239
43.565 0.0113082
43.61 0.0389057
43.655 0.010977
43.7 0.0294128
43.745 0.0780589
43.79 0.0658928
43.835 0.0169909
43.88 0.0206937
43.925 0.035383
43.97 0.0246349
44.015 0.0487218
44.06 0.0388351
44.105 0.0168139
44.15 0.0288968
44.195 0.000498294
44.24 0.0244473
44.285 0.0328452
44.33 0.056176
44.375 0.0482627
44.42 0.0311593
44.465 0.0272886
44.51 0.0241726
44.555 0.0430298
44.6 0.0365233
44.645 0.0949957
44.69 0.070643
44.735 0.0555983
44.78 0.0761056
44.825 0.0441737
44.87 0.0481568
44.915 0.0487961
44.96 0.0180628
45.005 0.00582234
45.05 0.0333266
45.095 0.0300285
45.14 0.0177978
45.185 0.0138078
45.23 0.00370183
45.275 0.00563165
45.32 0.0244488
45.365 0.0208959
45.41 0.0110418
45.455 0.0227766
45.5 0.00901286
45.545 0.0109763
45.59 -0.014274
45.635 0.0363526
45.68 0.0226354
45.725 0.0194462
45.77 0.0247382
45.815 0.0100767
45.86 0.00315672
45.905 0.00705239
45.95 0.0443774
45.995 0.0325007
46.04 0.010818
46.085 0.010124
46.13 0.0253871
46.175 -0.000998948
46.22 0.0132761
46.265 0.00762924
46.31 0.0341334
46.355 0.0193466
46.4 0.0217629
46.445 0.0602728
46.49 0.0100843
46.535 0.00863031
46.58 0.0478288
46.625 0.0150011
46.67 0.0125003
46.715 0.00651366
46.76 0.0459058
46.805 0.0454378
46.85 0.00445222
46.895 0.0229941
46.94 0.00666511
46.985 0.0338724
47.03 0.0200845
47.075 0.0152949
47.12 0.0159784
47.165 0.00919959
47.21 0.0233519
47.255 0.0293618
47.3 0.0346909
47.345 0.0141106
47.39 0.0184888
47.435 0.0322944
47.48 0.0405927
47.525 0.0296354
47.57 0.0145082
47.615 0.0344828
47.66 0.0412611
47.705 0.0587058
47.75 0.0650134
47.795 0.115827
47.84 0.180633
47.885 0.20455
47.93 0.351837
47.975 0.618671
48.02 1.06748
48.065 1.64668
48.11 1.84243
48.155 1.63428
48.2 1.14819
48.245 0.724301
48.29 0.39662
48.335 0.237627
48.38 0.0967193
48.425 0.0437301
48.47 0.0654536
48.515 -0.00465793
48.56 0.0128941
48.605 0.0140414
48.65 0.0153107
48.695 0.0416915
48.74 0.0145114
48.785 0.018043
48.83 0.025764
48.875 -0.00603845
48.92 0.0499871
48.965 0.0170725
49.01 0.0493
49.055 0.0527185
49.1 0.0628323
49.145 0.0527032
49.19 0.0232742
49.235 0.0316818
49.28 0.0089814
49.325 0.00321596
49.37 0.0151919
49.415 -0.00123376
49.46 0.0155278
49.505 0.00722149
49.55 0.0155961
49.595 0.000856993
49.64 0.00540203
49.685 0.0134457
49.73 0.0438688
49.775 0.0569855
49.82 0.0646931
49.865 0.0779937
49.91 0.103868
49.955 0.170904
50 0.295643
50.045 0.488001
50.09 0.767541
50.135 0.983007
50.18 1.11418
50.225 1.10629
50.27 0.991566
50.315 0.814576
50.36 0.566699
50.405 0.383138
50.45 0.228336
50.495 0.114448
50.54 0.0752331
50.585 0.0503252
50.63 0.0353725
50.675 0.0212941
50.72 0.0235528
50.765 0.0227679
50.81 -0.00050902
50.855 0.0169548
50.9 0.0184154
50.945 0.0380429
50.99 0.0286865
51.035 0.0212492
51.08 0.0308136
51.125 0.0335437
51.17 0.0271323
51.215 -0.00855659
51.26 0.0356407
51.305 0.0170702
51.35 0.0134676
51.395 -0.0157244
51.44 0.00677044
51.485 0.012089
51.53 0.01913
51.575 -0.0100259
51.62 0.0318151
51.665 0.0357655
51.71 0.036226
51.755 0.0621185
51.8 0.091598
51.845 0.120239
51.89 0.158745
51.935 0.160575
51.98 0.160574
52.025 0.131243
52.07 0.107012
52.115 0.0569729
52.16 0.0587853
52.205 0.0187185
52.25 0.0216368
52.295 0.00315235
52.34 -0.0095444
52.385 -0.0104264
52.43 0.0140024
52.475 0.00505881
52.52 -0.00189221
52.565 0.0145142
52.61 -0.00384926
52.655 0.00848793
52.7 0.0184149
52.745 0.0368136
52.79 0.0257081
52.835 0.0413242
52.88 0.00933875
52.925 0.0209141
52.97 0.0167891
53.015 -0.0108266
53.06 0.0252868
53.105 0.0405694
53.15 -0.0205048
53.195 -0.00225437
53.24 0.0160516
53.285 0.0145916
53.33 -0.00134693
53.375 0.0264656
53.42 0.012483
53.465 0.0164754
53.51 0.0153461
53.555 0.00482684
53.6 -0.00179342
53.645 0.0146963
53.69 0.0178956
53.735 0.0370177
53.78 0.0365303
53.825 0.00184111
53.87 0.0481567
53.915 0.0179646
53.96 0.0225877
54.005 0.031377
54.05 0.0193726
54.095 -0.0179423
54.14 -0.00183445
54.185 0.00413832
54.23 0.012715
54.275 0.0229697
54.32 -0.0076548
54.365 0.0129804
54.41 0.00765279
54.455 -0.00797433
54.5 0.0153505
54.545 -0.00492158
54.59 0.00160966
54.635 0.011822
54.68 0.0210641
54.725 0.000455051
54.77 -0.00118782
54.815 -0.00892523
54.86 0.0230828
54.905 0.00384633
54.95 0.0185001
54.995 0.019689
55.04 0.00625731
55.085 0.0215623
55.13 0.0136483
55.175 0.0205949
55.22 -0.0114782
55.265 0.00178081
55.31 0.00388083
55.355 0.0118456
55.4 0.0202336
55.445 0.0266948
55.49 -0.0135655
55.535 0.0134767
55.58 0.0142925
55.625 0.0123321
55.67 0.023011
55.715 -0.00906926
55.76 -0.00934099
55.805 0.00485209
55.85 0.0139891
55.895 0.00738478
55.94 0.00634271
55.985 0.031716
56.03 0.0153626
56.075 0.0290977
56.12 0.0249588
56.165 0.0329789
56.21 0.029838
56.255 0.0397427
56.3 0.00502023
56.345 0.0319247
56.39 0.0499328
56.435 0.0041389
56.48 0.00107097
56.525 0.0170206
56.57 0.0366438
56.615 0.0101983
56.66 -0.0134752
56.705 -0.00791906
56.75 0.0300792
56.795 0.0305764
56.84 0.0525839
56.885 0.0577876
56.93 0.0564019
56.975 0.0577439
57.02 0.054181
57.065 0.0533761
57.11 0.0131293
57.155 0.0127468
57.2 0.0296624
57.245 0.013336
57.29 0.0345111
57.335 0.035331
57.38 0.0324164
57.425 0.0354862
57.47 0.0712263
57.515 0.0247971
57.56 0.0541065
57.605 0.0909601
57.65 0.128062
57.695 0.151953
57.74 0.123967
57.785 0.161072
57.83 0.152706
57.875 0.163729
57.92 0.0993285
57.965 0.101415
58.01 0.0835343
58.055 0.0655058
58.1 0.0603729
58.145 0.0252921
58.19 0.0380822
58.235 0.0240047
58.28 0.00782482
58.325 0.0331959
58.37 0.0421937
58.415 0.0278735
58.46 0.00616316
58.505 0.0431099
58.55 0.00251902
58.595 0.0453711
58.64 0.0115698
58.685 0.0214328
58.73 0.0298374
58.775 -0.00299673
58.82 0.0191767
58.865 0.0570849
58.91 0.00716356
58.955 0.00692166
59 0.0337738
59.045 0.0302966
59.09 0.0178604
59.135 0.017253
59.18 0.0385532
59.225 0.0441557
59.27 -0.000545255
59.315 0.038607
59.36 0.0206098
59.405 0.0167595
59.45 0.00787279
59.495 0.0316077
59.54 -0.00163627
59.585 0.0165997
59.63 0.0213245
59.675 0.0134654
59.72 0.0242577
59.765 0.0137648
59.81 9.14597e-05
59.855 0.0228777
59.9 0.0261728
59.945 0.0379865
59.99 0.0180754
60.035 0.00490447
60.08 0.0473863
60.125 0.0463077
60.17 0.01994
60.215 0.0587298
60.26 0.0504993
60.305 0.0296794
60.35 -0.00492839
60.395 0.0298767
60.44 0.0362796
60.485 -0.000938131
60.53 0.0305899
60.575 0.0374982
60.62 0.053126
60.665 0.0199303
60.71 0.0189825
60.755 0.0139916
60.8 0.0166524
60.845 -0.00325366
60.89 0.0225029
60.935 0.0299789
60.98 -0.00667959
61.025 0.0382977
61.07 0.0191853
61.115 0.0758774
61.16 0.0166576
61.205 0.0547067
61.25 0.0373658
61.295 0.0730506
61.34 0.0812681
61.385 0.1109
61.43 0.114984
61.475 0.163311
61.52 0.285618
61.565 0.399269
61.61 0.424323
61.655 0.36767
61.7 0.309702
61.745 0.321477
61.79 0.276109
61.835 0.242764
61.88 0.171407
61.925 0.106008
61.97 0.107522
62.015 0.0707549
62.06 0.0763687
62.105 0.0891067
62.15 0.119807
62.195 0.151046
62.24 0.13869
62.285 0.178926
62.33 0.115328
62.375 0.149104
62.42 0.123345
62.465 0.127569
62.51 0.0928932
62.555 0.0739136
62.6 0.0928443
62.645 0.0929538
62.69 0.0403551
62.735 0.0604326
62.78 0.0410345
62.825 0.0282191
62.87 0.0122788
62.915 0.0314694
62.96 0.0187989
63.005 0.029248
63.05 0.00937302
63.095 -0.0179525
63.14 0.0109057
63.185 0.0266889
63.23 0.0327824
63.275 0.027448
63.32 0.0460732
63.365 0.0399257
63.41 0.0115923
63.455 0.0210975
63.5 0.0218059
63.545 -0.00708902
63.59 0.0170476
63.635 0.0226365
63.68 0.0206509
63.725 0.0398881
63.77 -0.00790651
63.815 -0.00431985
63.86 0.026161
63.905 0.0368429
63.95 0.0120069
63.995 0.0258544
64.04 0.0368992
64.085 0.0184587
64.13 0.0139
64.175 0.0194347
64.22 0.00668592
64.265 0.0181451
64.31 0.00678558
64.355 -0.0116986
64.4 0.0268052
64.445 0.00721356
64.49 0.0104876
64.535 0.00523211
64.58 0.0466665
64.625 0.00771104
64.67 0.0353357
64.715 0.0444756
64.76 0.0186866
64.805 0.0351367
64.85 0.0386648
64.895 0.024798
64.94 0.044831
64.985 0.0392491
65.03 0.0291569
65.075 0.0316959
65.12 0.0436388
65.165 0.0391608
65.21 0.0514654
65.255 0.0300868
65.3 0.0210378
65.345 0.00703743
65.39 0.0111573
65.435 0.00685164
65.48 0.0171486
65.525 0.0161301
65.57 0.0296533
65.615 -0.00918304
65.66 0.0122116
65.705 0.0118491
65.75 0.0167266
65.795 0.0267223
65.84 0.0159651
65.885 -0.0168921
65.93 0.0220884
65.975 0.0175376
66.02 -0.00186984
66.065 0.0285666
66.11 0.0118304
66.155 -0.00242055
66.2 0.0162657
66.245 0.00951833
66.29 -0.0134824
66.335 0.0110724
66.38 0.0235153
66.425 0.0163287
66.47 0.0184058
66.515 0.0321576
66.56 0.0253329
66.605 0.00853982
66.65 0.00114121
66.695 0.0270099
66.74 0.0232691
66.785 0.0254517
66.83 0.0194152
66.875 0.00502895
66.92 0.00731512
66.965 0.02508
67.01 0.0132672
67.055 0.0296107
67.1 0.0496954
67.145 0.0199812
67.19 0.0106746
67.235 0.0118447
67.28 -0.0118913
67.325 0.0123255
67.37 0.0379281
67.415 0.0307804
67.46 0.0169698
67.505 0.015876
67.55 0.00688565
67.595 0.0357695
67.64 0.0421816
67.685 0.00497531
67.73 0.0313274
67.775 0.0466194
67.82 0.0296554
67.865 0.0395051
67.91 0.0513674
67.955 0.0316163
68 0.0485065
68.045 0.0322655
68.09 0.000279539
68.135 0.0355079
68.18 0.00328126
68.225 0.0058028
68.27 0.0273503
68.315 0.0175411
68.36 0.0333913
68.405 -0.00674329
68.45 0.0117772
68.495 0.0236657
68.54 0.0282774
68.585 0.00936388
68.63 0.0250718
68.675 0.0296243
68.72 0.0190342
68.765 0.00960293
68.81 0.00735131
68.855 0.00812614
68.9 0.0225894
68.945 -0.00122644
68.99 0.00796641
69.035 0.0248201
69.08 0.0230155
69.125 -0.000972318
69.17 0.00899783
69.215 0.0157646
69.26 -0.00713151
69.305 0.0195323
69.35 0.0239144
69.395 0.0102941
69.44 0.000245354
69.485 0.0348087
69.53 0.0279278
69.575 0.0285095
69.62 0.015559
69.665 0.00859594
69.71 -0.00710498
69.755 0.0254073
69.8 0.012392
69.845 0.0231865
69.89 0.0242948
69.935 0.0475544
69.98 0.0292351
70.025 0.00314812
70.07 0.0518699
70.115 0.0240062
70.16 0.0378884
70.205 0.0212298
70.25 0.0227202
70.295 0.0282527
70.34 0.000971898
70.385 0.00990899
70.43 0.00686395
70.475 0.0154996
70.52 0.00788489
70.565 0.0158809
70.61 0.00918559
70.655 0.00699998
70.7 0.0151309
70.745 0.0439936
70.79 0.0218266
70.835 0.0499904
70.88 0.0518925
70.925 0.063396
70.97 0.0419739
71.015 0.0797249
71.06 0.0696966
71.105 0.146283
71.15 0.222399
71.195 0.240431
71.24 0.255442
71.285 0.257614
71.33 0.177076
71.375 0.13114
71.42 0.0741281
71.465 0.0675976
71.51 0.0426253
71.555 0.040886
71.6 0.0355147
71.645 0.0134
71.69 0.0178651
71.735 0.0224854
71.78 0.0203062
71.825 0.0123585
71.87 0.0296756
71.915 0.0191375
71.96 0.0127858
72.005 0.0177072
72.05 0.0542921
72.095 0.0299228
72.14 0.00569419
72.185 0.0300358
72.23 0.0168156
72.275 0.0159935
72.32 0.0310675
72.365 0.0385753
72.41 0.0260113
72.455 0.0347863
72.5 0.0371737
72.545 0.0235767
72.59 -0.00271682
72.635 0.0240554
72.68 0.00498785
72.725 0.0250545
72.77 0.0367456
72.815 0.0213565
72.86 0.0202486
72.905 -0.00199291
72.95 0.00500722
72.995 0.00518538
73.04 0.00463883
73.085 0.0305716
73.13 0.0177306
73.175 0.00986433
73.22 0.0228759
73.265 0.00488557
73.31 0.0387579
73.355 0.0118028
73.4 0.0336971
73.445 0.0302543
73.49 0.0225816
73.535 0.0442363
73.58 0.0393468
73.625 0.00253647
73.67 0.0375938
73.715 0.0107634
73.76 0.0326628
73.805 0.0280679
73.85 0.0109828
73.895 0.0221981
73.94 0.0258771
73.985 0.0129453
74.03 -0.0096002
74.075 0.00681411
74.12 0.00848885
74.165 0.0234024
74.21 0.000578043
74.255 0.0243243
74.3 -0.00892211
74.345 0.0114635
74.39 -0.00648581
74.43 -0.015547