File: data/xrd/xy/2019-07-01T19_39_31.550325+00_00_LBL_H4.xy
'Id: "" Comment: "Integrate frame 20190716_acnh3_nprop_4flph_04_002.gfrmwith cursor Wedge Cursor #2" Operator: "UC Berkeley" Anode: "Co" Scantype: "TwoTheta" TimePerStep: "450"
20.73 -0.0333218
20.77 0.0464277
20.81 -0.0228575
20.85 0.15194
20.89 0.0684022
20.93 0.0798955
20.97 0.125681
21.01 0.0691703
21.05 0.154818
21.09 0.110297
21.13 0.037373
21.17 0.090601
21.21 0.0926776
21.25 0.0954022
21.29 0.0466676
21.33 0.138765
21.37 0.0775612
21.41 0.134795
21.45 0.0828299
21.49 0.0794648
21.53 0.113623
21.57 0.0561386
21.61 0.0310543
21.65 0.028854
21.69 0.0433021
21.73 0.106195
21.77 0.0717809
21.81 0.0716626
21.85 -0.0312515
21.89 0.0473593
21.93 0.0898687
21.97 0.0735572
22.01 0.111367
22.05 0.0789279
22.09 0.0479983
22.13 0.0435412
22.17 -0.0263287
22.21 0.048213
22.25 0.136698
22.29 0.0554031
22.33 0.0213716
22.37 0.0593151
22.41 0.0214917
22.45 0.0438353
22.49 0.130443
22.53 0.0976734
22.57 0.0786594
22.61 0.101763
22.65 0.0933845
22.69 0.22212
22.73 0.1488
22.77 0.218861
22.81 0.183287
22.85 0.17029
22.89 0.264658
22.93 0.174154
22.97 0.170081
23.01 0.0838151
23.05 0.0726117
23.09 0.063939
23.13 0.058584
23.17 0.0456697
23.21 0.0352557
23.25 0.0833226
23.29 0.0679745
23.33 0.0004524
23.37 0.0367301
23.41 0.0920439
23.45 0.0186487
23.49 0.0923756
23.53 0.0860559
23.57 0.00708565
23.61 0.0824981
23.65 0.0322686
23.69 0.11184
23.73 0.0769912
23.77 0.018193
23.81 0.087159
23.85 0.0599738
23.89 0.0373106
23.93 0.0333951
23.97 0.0622293
24.01 0.0351326
24.05 0.0723108
24.09 0.0165473
24.13 0.0698095
24.17 0.0641889
24.21 0.103072
24.25 0.0697598
24.29 0.0270369
24.33 0.0442975
24.37 0.105544
24.41 0.0434037
24.45 -0.0177961
24.49 0.0624622
24.53 0.12903
24.57 0.0316628
24.61 0.0357028
24.65 0.0777399
24.69 0.0201949
24.73 0.0594999
24.77 0.062275
24.81 -0.0201067
24.85 0.0129868
24.89 0.0677818
24.93 0.052726
24.97 0.068723
25.01 0.0164627
25.05 0.0254281
25.09 0.095887
25.13 0.0709034
25.17 -0.0120301
25.21 0.0569346
25.25 0.0984205
25.29 0.0367692
25.33 0.0518051
25.37 0.01111
25.41 0.0554378
25.45 0.125784
25.49 0.0973542
25.53 0.168778
25.57 0.429976
25.61 0.541448
25.65 0.872113
25.69 0.831474
25.73 0.82386
25.77 0.579051
25.81 0.244527
25.85 0.220085
25.89 0.0461323
25.93 0.0523851
25.97 0.012562
26.01 0.0184157
26.05 0.0144774
26.09 0.0265247
26.13 0.0419195
26.17 0.0693348
26.21 -0.00181473
26.25 0.00584007
26.29 0.0355406
26.33 0.042985
26.37 0.000989942
26.41 0.0257771
26.45 0.0440194
26.49 0.0106238
26.53 -0.00524428
26.57 0.113158
26.61 0.0764569
26.65 0.0478067
26.69 0.0780225
26.73 0.0405624
26.77 -0.00243565
26.81 0.0395029
26.85 0.00827668
26.89 0.0465238
26.93 0.0151651
26.97 0.0022806
27.01 0.0231705
27.05 0.0718131
27.09 0.0790343
27.13 0.0312277
27.17 0.0519136
27.21 0.0565579
27.25 0.0963202
27.29 0.0938516
27.33 0.0452504
27.37 0.0184285
27.41 0.0627533
27.45 0.0679082
27.49 0.125582
27.53 0.038304
27.57 0.108071
27.61 0.0582594
27.65 0.0188737
27.69 0.114953
27.73 0.00715868
27.77 0.0255524
27.81 0.0550952
27.85 0.0180893
27.89 0.0190612
27.93 0.0490524
27.97 0.0263876
28.01 0.0504034
28.05 0.013861
28.09 0.00855064
28.13 0.0504542
28.17 0.0219023
28.21 0.0174842
28.25 0.0451461
28.29 0.0192897
28.33 0.0473236
28.37 0.0199254
28.41 0.100387
28.45 0.00578926
28.49 0.0479824
28.53 0.0497741
28.57 0.0092955
28.61 0.0127542
28.65 0.0450423
28.69 0.0310433
28.73 0.0223505
28.77 0.135013
28.81 0.160551
28.85 0.219824
28.89 0.303831
28.93 0.349372
28.97 0.498966
29.01 0.338752
29.05 0.311907
29.09 0.271055
29.13 0.331384
29.17 0.217604
29.21 0.344784
29.25 0.443661
29.29 0.58162
29.33 0.799067
29.37 1.10552
29.41 1.42363
29.45 1.73294
29.49 1.59518
29.53 1.47802
29.57 1.26079
29.61 0.906527
29.65 0.733768
29.69 0.44901
29.73 0.301713
29.77 0.256415
29.81 0.135358
29.85 0.122277
29.89 0.160562
29.93 0.0846965
29.97 0.0617118
30.01 0.0747143
30.05 0.0121203
30.09 0.0173906
30.13 0.0487739
30.17 0.0201498
30.21 0.00811823
30.25 0.0209432
30.29 -0.00199049
30.33 0.00851587
30.37 0.0279757
30.41 0.0821629
30.45 0.0252806
30.49 0.0179591
30.53 0.0150526
30.57 0.0367752
30.61 0.00413205
30.65 0.00824501
30.69 0.0497648
30.73 -0.0127404
30.77 -0.0019239
30.81 0.00610615
30.85 0.00307052
30.89 -0.0281132
30.93 0.0466159
30.97 0.047597
31.01 0.00525072
31.05 0.0608605
31.09 0.0196664
31.13 0.0315887
31.17 0.0243999
31.21 0.0801896
31.25 0.0689536
31.29 0.0499202
31.33 0.034444
31.37 0.067832
31.41 0.0860436
31.45 0.0192401
31.49 0.0817957
31.53 -0.0285209
31.57 0.0781154
31.61 0.0874017
31.65 0.0953573
31.69 0.0788048
31.73 0.0693357
31.77 0.101305
31.81 0.0721255
31.85 0.0901056
31.89 0.0460907
31.93 0.077579
31.97 0.0651103
32.01 0.070505
32.05 0.0236693
32.09 0.0374153
32.13 0.0515394
32.17 0.0151682
32.21 0.0328061
32.25 0.0415141
32.29 0.0292907
32.33 0.00433051
32.37 0.0395486
32.41 0.00774612
32.45 0.0741324
32.49 0.0112755
32.53 0.0499487
32.57 0.0206374
32.61 0.0444482
32.65 0.011635
32.69 0.0229756
32.73 0.0676475
32.77 0.0137508
32.81 0.0321896
32.85 0.00885661
32.89 0.0469204
32.93 0.0355255
32.97 0.0712609
33.01 0.0301075
33.05 0.0592342
33.09 0.0267001
33.13 0.0320154
33.17 0.0347523
33.21 0.0445825
33.25 0.0239745
33.29 0.00917339
33.33 0.0664719
33.37 0.0553875
33.41 0.00439156
33.45 0.082868
33.49 -0.0184657
33.53 0.0767918
33.57 0.0477954
33.61 0.0841517
33.65 0.0536728
33.69 0.0120161
33.73 0.0433512
33.77 0.0633179
33.81 -0.000364945
33.85 0.0276025
33.89 0.0228104
33.93 0.0373135
33.97 0.0242859
34.01 0.036188
34.05 0.0499587
34.09 0.023591
34.13 0.041675
34.17 0.0650817
34.21 0.0460348
34.25 0.0621484
34.29 0.109107
34.33 0.105338
34.37 0.123875
34.41 0.226067
34.45 0.300845
34.49 0.433746
34.53 0.698667
34.57 0.964604
34.61 1.08041
34.65 1.20079
34.69 1.17865
34.73 0.95952
34.77 0.799326
34.81 0.585908
34.85 0.374884
34.89 0.319637
34.93 0.267282
34.97 0.266252
35.01 0.342657
35.05 0.346716
35.09 0.420908
35.13 0.461765
35.17 0.618544
35.21 0.601146
35.25 0.566732
35.29 0.576824
35.33 0.520697
35.37 0.379592
35.41 0.339826
35.45 0.288409
35.49 0.175314
35.53 0.153262
35.57 0.119418
35.61 0.0874196
35.65 0.0661605
35.69 0.0521698
35.73 0.0359591
35.77 -0.00949626
35.81 -0.00198805
35.85 0.00483033
35.89 0.028571
35.93 0.0190118
35.97 -0.00717411
36.01 0.000374362
36.05 0.00909056
36.09 -0.0029776
36.13 0.046469
36.17 -0.0199172
36.21 -0.00387854
36.25 -0.00979794
36.29 0.0371273
36.33 -0.00837614
36.37 -0.00564797
36.41 -0.00123692
36.45 0.00209146
36.49 0.0199594
36.53 -0.00334147
36.57 0.0242723
36.61 0.0305204
36.65 0.0241235
36.69 0.00985838
36.73 0.0369475
36.77 0.0446173
36.81 0.0535618
36.85 0.0923531
36.89 0.149271
36.93 0.18586
36.97 0.270515
37.01 0.388327
37.05 0.567654
37.09 0.770967
37.13 0.978591
37.17 1.08915
37.21 1.09802
37.25 1.08788
37.29 0.928001
37.33 0.728687
37.37 0.579947
37.41 0.384461
37.45 0.294206
37.49 0.286314
37.53 0.271766
37.57 0.238975
37.61 0.227547
37.65 0.216621
37.69 0.144869
37.73 0.130985
37.77 0.108349
37.81 0.108009
37.85 0.0669327
37.89 0.0584956
37.93 0.0482881
37.97 0.0318773
38.01 0.0374905
38.05 0.0218263
38.09 0.0159955
38.13 0.00776502
38.17 0.0153697
38.21 -0.00067832
38.25 -0.00693017
38.29 0.03098
38.33 0.0294182
38.37 0.0463896
38.41 0.0289594
38.45 0.0371904
38.49 0.00240079
38.53 -0.0170239
38.57 0.00278002
38.61 0.00984583
38.65 0.000243891
38.69 0.00973038
38.73 0.000506047
38.77 0.0139553
38.81 -0.0157477
38.85 0.0208811
38.89 0.00651507
38.93 0.0152231
38.97 0.00833669
39.01 -0.0115162
39.05 0.0102635
39.09 -0.0127173
39.13 0.01822
39.17 0.0268826
39.21 0.00313351
39.25 0.0248875
39.29 0.0167928
39.33 0.000512796
39.37 -0.0200148
39.41 0.00052814
39.45 -0.00428495
39.49 0.00874936
39.53 0.00845631
39.57 0.00580451
39.61 -0.00730253
39.65 -0.00311319
39.69 0.0206411
39.73 -0.00805079
39.77 -0.0124499
39.81 0.0140876
39.85 0.0217963
39.89 0.0150361
39.93 0.0149337
39.97 0.0408813
40.01 0.0455585
40.05 0.0338673
40.09 0.0774116
40.13 0.069566
40.17 0.0547831
40.21 0.0689861
40.25 0.0536956
40.29 0.0445866
40.33 0.0468235
40.37 0.015082
40.41 0.0101224
40.45 -0.0224837
40.49 0.00108806
40.53 0.00168916
40.57 0.0305226
40.61 0.00903807
40.65 0.0215165
40.69 0.00156722
40.73 -0.0259227
40.77 -0.00792393
40.81 -0.00362265
40.85 0.007549
40.89 0.00226241
40.93 0.00898416
40.97 -0.0110013
41.01 0.004593
41.05 0.0097972
41.09 0.0158548
41.13 0.0504147
41.17 0.0735335
41.21 0.107534
41.25 0.106278
41.29 0.0826743
41.33 0.107053
41.37 0.111836
41.41 0.0800198
41.45 0.0280696
41.49 0.00392085
41.53 0.0292356
41.57 0.0200699
41.61 0.0118602
41.65 0.00624816
41.69 0.0211335
41.73 -0.00220964
41.77 0.0121335
41.81 0.0310133
41.85 0.0337027
41.89 0.0156875
41.93 -0.0151687
41.97 0.0076886
42.01 0.0288526
42.05 0.00229838
42.09 0.018538
42.13 0.0472459
42.17 -0.000439876
42.21 0.0123013
42.25 0.0216052
42.29 0.0272501
42.33 0.0227428
42.37 0.0306624
42.41 0.042004
42.45 0.0389951
42.49 0.0258521
42.53 0.0261062
42.57 0.0109674
42.61 0.00682406
42.65 0.0131194
42.69 0.026348
42.73 -0.0153641
42.77 0.0217983
42.81 0.0167913
42.85 0.0232503
42.89 0.0395949
42.93 0.00411759
42.97 0.0354819
43.01 0.00710732
43.05 0.043361
43.09 0.0274266
43.13 0.0137224
43.17 0.0090356
43.21 0.0139488
43.25 -0.0105874
43.29 0.0400247
43.33 0.0278559
43.37 0.0119269
43.41 0.0376998
43.45 -0.0253427
43.49 0.0382682
43.53 0.0225493
43.57 0.0367802
43.61 0.0326148
43.65 0.0190099
43.69 0.0408182
43.73 0.0362311
43.77 0.0409231
43.81 0.0514218
43.85 0.11262
43.89 0.122966
43.93 0.143985
43.97 0.222288
44.01 0.192124
44.05 0.215393
44.09 0.257883
44.13 0.232442
44.17 0.222485
44.21 0.177877
44.25 0.224114
44.29 0.111351
44.33 0.132514
44.37 0.100685
44.41 0.035665
44.45 0.0750629
44.49 0.0251605
44.53 0.0533904
44.57 0.0089458
44.61 0.0563641
44.65 0.0420627
44.69 0.0464314
44.73 0.0378511
44.77 0.0775824
44.81 0.0169126
44.85 -0.0217717
44.89 0.0246385
44.93 0.0119426
44.97 0.0107539
45.01 0.0200637
45.05 0.0132215
45.09 0.0554817
45.13 -0.0116374
45.17 0.00303477
45.21 0.0158474
45.25 0.0399891
45.29 0.0286518
45.33 0.026492
45.37 -0.0250647
45.41 0.0204845
45.45 0.0348716
45.49 0.0278343
45.53 0.00752999
45.57 0.0197526
45.61 0.0627675
45.65 0.0107523
45.69 0.00626928
45.73 0.0230901
45.77 0.00209636
45.81 0.03753
45.85 0.0148219
45.89 0.0393049
45.93 0.015807
45.97 0.00400042
46.01 -0.00152435
46.05 0.0495232
46.09 0.0289678
46.13 0.0531985
46.17 0.0776817
46.21 0.0678843
46.25 0.138589
46.29 0.143857
46.33 0.124351
46.37 0.221787
46.41 0.217251
46.45 0.302113
46.49 0.380978
46.53 0.401801
46.57 0.522125
46.61 0.560114
46.65 0.601059
46.69 0.606658
46.73 0.563525
46.77 0.525238
46.81 0.466347
46.85 0.394008
46.89 0.349549
46.93 0.306363
46.97 0.286336
47.01 0.20092
47.05 0.110193
47.09 0.119823
47.13 0.114434
47.17 0.0571685
47.21 0.0704041
47.25 0.0582903
47.29 0.0325884
47.33 0.0510842
47.37 -0.0270232
47.41 0.0502298
47.45 0.0267927
47.49 0.110625
47.53 0.158162
47.57 0.3039
47.61 0.388562
47.65 0.411044
47.69 0.391261
47.73 0.360281
47.77 0.304189
47.81 0.246519
47.85 0.199206
47.89 0.144553
47.93 0.133037
47.97 0.126924
48.01 0.160055
48.05 0.151807
48.09 0.128366
48.13 0.149745
48.17 0.162821
48.21 0.195876
48.25 0.206951
48.29 0.228806
48.33 0.210976
48.37 0.246086
48.41 0.22836
48.45 0.230686
48.49 0.259622
48.53 0.241606
48.57 0.290447
48.61 0.330255
48.65 0.309176
48.69 0.283587
48.73 0.263535
48.77 0.275286
48.81 0.28632
48.85 0.207083
48.89 0.1669
48.93 0.198871
48.97 0.146262
49.01 0.107857
49.05 0.0846131
49.09 0.0329844
49.13 0.0716118
49.17 0.0162123
49.21 0.0470222
49.25 0.0124647
49.29 0.0172245
49.33 0.034742
49.37 0.0121811
49.41 0.0198896
49.45 0.0194497
49.49 0.0146068
49.53 0.0124116
49.57 0.0082967
49.61 -0.0137591
49.65 0.0185076
49.69 -0.00370135
49.73 0.0163701
49.77 -0.00472279
49.81 -0.00839842
49.85 0.0113002
49.89 0.0142078
49.93 0.0230555
49.97 0.0338973
50.01 0.00853514
50.05 -0.00100859
50.09 0.00764211
50.13 0.0145657
50.17 0.00600658
50.21 0.0119077
50.25 0.010288
50.29 0.012936
50.33 0.0215502
50.37 0.0445223
50.41 0.0300127
50.45 0.0308831
50.49 0.0191323
50.53 0.0557648
50.57 0.0461809
50.61 0.0548562
50.65 0.0620277
50.69 0.0301234
50.73 0.0225224
50.77 0.0341896
50.81 0.0234747
50.85 0.0148536
50.89 0.00955997
50.93 -0.00799251
50.97 0.00762102
51.01 0.00990342
51.05 -0.00996766
51.09 -0.00263674
51.13 -0.0145446
51.17 0.0065295
51.21 0.00652332
51.25 -0.0130683
51.29 0.00576612
51.33 -0.0240071
51.37 0.00820381
51.41 0.0195717
51.45 0.00724253
51.49 0.0281734
51.53 -0.00382377
51.57 -0.0110859
51.61 0.0159014
51.65 -0.00291184
51.69 -0.00482628
51.73 -0.0237368
51.77 0.0182342
51.81 0.0157307
51.85 -0.0125875
51.89 -0.00324199
51.93 0.0225684
51.97 0.0257475
52.01 -0.00287104
52.05 0.00828694
52.09 0.0200384
52.13 -0.00300051
52.17 -0.0145046
52.21 0.00191469
52.25 0.0252267
52.29 0.0119774
52.33 0.00656919
52.37 0.0279033
52.41 0.0188471
52.45 0.0381584
52.49 0.0434064
52.53 0.0463119
52.57 0.0582548
52.61 0.0731938
52.65 0.123578
52.69 0.171243
52.73 0.176925
52.77 0.150702
52.81 0.193185
52.85 0.192648
52.89 0.166699
52.93 0.135752
52.97 0.117718
53.01 0.0964416
53.05 0.0742174
53.09 0.0515846
53.13 0.0172795
53.17 -0.0171223
53.21 -0.0127153
53.25 0.0253543
53.29 0.00852116
53.33 0.00309464
53.37 -0.00412897
53.41 0.0189101
53.45 0.0375566
53.49 0.0186724
53.53 0.0245074
53.57 0.0352206
53.61 0.00100456
53.65 0.0126417
53.69 -0.0136142
53.73 -0.0211026
53.77 -0.0141167
53.81 -0.00910178
53.85 0.0254016
53.89 -0.00897927
53.93 -0.00636485
53.97 -0.00485124
54.01 0.0246601
54.05 -0.00051763
54.09 -0.0193152
54.13 0.0107717
54.17 0.0227142
54.21 0.000696526
54.25 0.0278227
54.29 0.0544745
54.33 0.108489
54.37 0.14337
54.41 0.199845
54.45 0.24064
54.49 0.276688
54.53 0.293128
54.57 0.332655
54.61 0.350975
54.65 0.33733
54.69 0.331252
54.73 0.264053
54.77 0.260852
54.81 0.200978
54.85 0.159636
54.89 0.114106
54.93 0.0883545
54.97 0.0717703
55.01 0.0542384
55.05 0.0138387
55.09 0.00123826
55.13 0.00116247
55.17 0.00451325
55.21 -0.00692039
55.25 -0.00186227
55.29 -0.0156231
55.33 0.00889129
55.37 0.0165867
55.41 0.00614161
55.45 0.0059865
55.49 0.00813837
55.53 0.000152741
55.57 0.0400644
55.61 0.0241362
55.65 0.0348694
55.69 0.0547882
55.73 0.0474259
55.77 0.0543394
55.81 0.0533937
55.85 0.108779
55.89 0.107957
55.93 0.113364
55.97 0.125831
56.01 0.109012
56.05 0.111818
56.09 0.127117
56.13 0.145399
56.17 0.15472
56.21 0.110799
56.25 0.139946
56.29 0.112897
56.33 0.111796
56.37 0.0896582
56.41 0.0921417
56.45 0.0360741
56.49 0.0403984
56.53 0.0649317
56.57 0.0197211
56.61 0.0435284
56.65 0.0226212
56.69 0.0215338
56.73 0.0182102
56.77 0.0557177
56.81 0.00290968
56.85 0.0405212
56.89 0.0363484
56.93 -0.0111996
56.97 0.0207357
57.01 -0.00526044
57.05 0.00991202
57.09 0.0109929
57.13 -0.0125916
57.17 0.0195496
57.21 0.0249375
57.25 0.0340881
57.29 0.00741418
57.33 0.000608549
57.37 0.0222618
57.41 0.0364443
57.45 0.0135335
57.49 0.0181153
57.53 0.0415704
57.57 -0.00398932
57.61 -0.00125235
57.65 0.0241072
57.69 0.0465547
57.73 0.00209404
57.77 -0.0176254
57.81 0.0199157
57.85 0.0147802
57.89 -0.00734407
57.93 0.0146323
57.97 -0.00727401
58.01 0.0132852
58.05 0.00725308
58.09 0.0139716
58.13 0.0138129
58.17 0.0299464
58.21 -0.0128425
58.25 0.0179624
58.29 0.0320202
58.33 0.0322844
58.37 0.0431983
58.41 0.0159903
58.45 0.0338924
58.49 0.0199429
58.53 0.0239634
58.57 0.0387668
58.61 0.0146279
58.65 0.0131636
58.69 0.00173338
58.73 0.0100511
58.77 0.0328182
58.81 -0.0117236
58.85 0.0247902
58.89 0.0278472
58.93 0.0464509
58.97 0.0124963
59.01 0.0138439
59.05 0.0331275
59.09 0.0418874
59.13 0.0415862
59.17 0.0271292
59.21 -0.0210498
59.25 0.0518481
59.29 0.02479
59.33 0.0382412
59.37 0.0281272
59.41 0.0695012
59.45 0.0563765
59.49 0.0699817
59.53 0.0573036
59.57 0.104819
59.61 0.0664513
59.65 0.0784799
59.69 0.103881
59.73 0.119569
59.77 0.100433
59.81 0.0865988
59.85 0.0836975
59.89 0.104879
59.93 0.110122
59.97 0.0583933
60.01 0.119792
60.05 0.0857954
60.09 0.0613206
60.13 0.0450166
60.17 0.0500139
60.21 0.0361662
60.25 0.0430791
60.29 0.0428054
60.33 0.0187644
60.37 0.013536
60.41 0.0131304
60.45 -0.0037007
60.49 -0.021025
60.53 0.0431569
60.57 0.0291615
60.61 0.0262805
60.65 0.0263415
60.69 -0.00712018
60.73 0.0396262
60.77 0.0204717
60.81 0.0298936
60.85 0.0709834
60.89 0.0668881
60.93 0.0566673
60.97 0.0894593
61.01 0.0817826
61.05 0.120329
61.09 0.132953
61.13 0.0858567
61.17 0.113687
61.21 0.120691
61.25 0.0761962
61.29 0.0412838
61.33 0.0792209
61.37 0.0816453
61.41 0.0732797
61.45 0.0693785
61.49 0.027765
61.53 0.0710308
61.57 0.0227049
61.61 0.066224
61.65 0.0408745
61.69 0.0440461
61.73 0.0609877
61.77 0.0681309
61.81 0.0204077
61.85 0.00415822
61.89 0.0205574
61.93 0.0367293
61.97 0.0255856
62.01 0.00828309
62.05 0.00867665
62.09 -0.0139708
62.13 0.0294859
62.17 0.0387214
62.21 0.0232811
62.25 0.0392035
62.29 0.0451254
62.33 0.0340339
62.37 0.0292264
62.41 0.0518338
62.45 0.0379156
62.49 -0.0204923
62.53 0.0271291
62.57 0.0125879
62.61 0.0215127
62.65 0.0139217
62.69 0.0112261
62.73 0.00726844
62.77 0.0312371
62.81 -0.0197686
62.85 0.00963454
62.89 -0.0111207
62.93 -0.009143
62.97 8.94925e-05
63.01 -0.00107906
63.05 0.0134572
63.09 -0.00549436
63.13 0.0470574
63.17 0.0164985
63.21 0.034533
63.25 0.0283749
63.29 0.000220071
63.33 0.000234888
63.37 0.0177718
63.41 -0.00887695
63.45 0.018699
63.49 -0.0118675
63.53 -0.00475557
63.57 0.0384132
63.61 0.0364693
63.65 0.0218791
63.69 0.010546
63.73 0.00893857
63.77 -0.00182752
63.81 0.0236438
63.85 -0.00415452
63.89 0.00952607
63.93 0.019966
63.97 0.0330033
64.01 0.00180849
64.05 0.0350594
64.09 0.0105287
64.13 0.0315377
64.17 -0.0112861
64.21 0.0211806
64.25 0.0248255
64.29 -0.00953932
64.33 0.0183301
64.37 0.0166579
64.41 -0.00263773
64.45 -0.000288227
64.49 0.0178266
64.53 0.00501089
64.57 -0.00143052
64.61 -0.00531794
64.65 0.00512957
64.69 0.0124897
64.73 0.0513332
64.77 0.0145624
64.81 0.0427103
64.85 0.0786023
64.89 0.0952635
64.93 0.108554
64.97 0.076966
65.01 0.124885
65.05 0.106586
65.09 0.0827577
65.13 0.114979
65.17 0.0799742
65.21 0.0815761
65.25 0.0869378
65.29 0.0466858
65.33 0.0309036
65.37 0.0391301
65.41 0.0208023
65.45 0.0185371
65.49 0.00951474
65.53 0.0420494
65.57 0.0171107
65.61 0.00147983
65.65 0.00710714
65.69 0.0236691
65.73 -1.92013e-05
65.77 0.0281715
65.81 0.0162341
65.85 0.0468977
65.89 0.00852654
65.93 0.022478
65.97 0.0206839
66.01 0.0365985
66.05 0.043826
66.09 0.022098
66.13 0.0432953
66.17 0.031123
66.21 0.0164621
66.25 0.0385936
66.29 0.0566185
66.33 -0.000747886
66.37 0.0311799
66.41 0.01575
66.45 0.0305386
66.49 -0.00228457
66.53 0.0244457
66.57 0.0211582
66.61 0.0326181
66.65 0.0133873
66.69 0.0232355
66.73 0.00111249
66.77 0.0401321
66.81 0.0364851
66.85 0.0383488
66.89 -0.00597521
66.93 0.0243441
66.97 0.0169142
67.01 0.00126565
67.05 0.011765
67.09 0.0153675
67.13 0.016022
67.17 0.0122321
67.21 0.0231877
67.25 0.00384001
67.29 0.0361412
67.33 0.0162544
67.37 0.0449472
67.41 0.0283055
67.45 0.0185501
67.49 -0.0142564
67.53 -0.00975252
67.57 0.0383073
67.61 -0.0165043
67.65 0.00483898
67.69 0.00877171
67.73 0.00865855
67.77 0.005599
67.81 0.0105439
67.85 -0.00258967
67.89 0.0235031
67.93 0.0326697
67.97 0.0444123
68.01 0.0516855
68.05 0.00265907
68.09 0.0218683
68.13 0.0291237
68.17 0.0322171
68.21 0.0179072
68.25 0.0037245
68.29 0.0380235
68.33 0.0127558
68.37 0.00412367
68.41 0.0124649
68.45 0.0214417
68.49 0.0163181
68.53 -0.00376001
68.57 0.0299313
68.61 0.0159141
68.65 0.0098016
68.69 0.0714686
68.73 0.0122754
68.77 0.0295893
68.81 0.0531053
68.85 0.0538255
68.89 0.0703167
68.93 0.0456601
68.97 0.0631595
69.01 0.0746847
69.05 0.0575337
69.09 0.06205
69.13 0.0565451
69.17 0.0752537
69.21 0.0791621
69.25 0.0910707
69.29 0.0861922
69.33 0.0939699
69.37 0.107999
69.41 0.10177
69.45 0.0675505
69.49 0.0769315
69.53 0.063451
69.57 0.066982
69.61 0.0942249
69.65 0.0572772
69.69 0.0374707
69.73 0.0334027
69.77 0.044918
69.81 0.0300467
69.85 0.0501821
69.89 0.00652388
69.93 0.033737
69.97 0.0115878
70.01 0.00201784
70.05 0.00996539
70.09 0.0266198
70.13 0.0303779
70.17 0.0159254
70.21 0.00624588
70.25 -0.000478087
70.29 0.00317845
70.33 0.0388855
70.37 0.0503784
70.41 -0.0101103
70.45 0.021701
70.49 -0.00762715
70.53 0.0048361
70.57 0.0278443
70.61 -0.0127717
70.65 0.00139118
70.69 0.0151114
70.73 0.00460891
70.77 0.0150938
70.81 0.00933882
70.85 -0.0164337
70.89 0.0278875
70.93 0.0176805
70.97 -0.00349703
71.01 0.0111346
71.05 0.00891466
71.09 0.0213728
71.13 0.00392671
71.17 0.0104522
71.21 0.0219515
71.25 -0.00704777
71.29 0.0167428
71.33 0.0396051
71.37 0.0140117
71.41 0.00407613
71.45 0.0154123
71.49 0.039742
71.53 0.0186278
71.57 -0.00214549
71.61 0.0320767
71.65 0.0214301
71.69 -0.000354627
71.73 0.00812929
71.77 0.0139415
71.81 0.00830923
71.85 0.013516
71.89 0.0021398
71.93 0.00758458
71.97 0.00668532
72.01 0.00159352
72.05 0.00186288
72.09 0.0341872
72.13 -0.00211223
72.17 -0.00652423
72.21 0.0316898
72.25 0.017112
72.29 -0.0138104
72.33 0.0102494
72.37 -0.0144676
72.41 0.012428
72.45 0.0111964
72.49 -0.000375346
72.53 0.0349641
72.57 0.0296284
72.61 0.0156893
72.65 0.0285144
72.69 0.0219891
72.73 0.0421638
72.77 0.0307265
72.81 0.0252
72.85 0.0436029
72.89 0.0490739
72.93 0.0727048
72.97 0.0587406
73.01 0.0573082
73.05 0.0592967
73.09 0.0542354
73.13 0.0743141
73.17 0.109427
73.21 0.0712709
73.25 0.0651044
73.29 0.0630298
73.33 0.0193608
73.37 0.0435969
73.41 0.0475589
73.45 0.0346925
73.49 0.0205724
73.53 0.0296953
73.57 0.0220203
73.61 0.0188995
73.65 0.0240818
73.69 0.0358574
73.73 0.048469
73.77 0.0319815
73.81 0.0173393
73.85 0.0218413
73.89 0.0530927
73.93 0.0778169
73.97 0.0359931
74.01 0.0503994
74.05 0.0346421
74.09 0.0285409
74.13 0.0148032
74.17 0.0136024
74.21 0.0161715
74.25 0.046777
74.29 0.00889907
74.33 0.00209479
74.37 0.0228345
74.41 0.0177923
74.45 -0.000229723
74.49 0.0158014
74.53 0.0390551
74.57 0.0173717
74.61 0.00235796
74.65 0.0154032
74.69 0.00912428
74.73 -0.00479836
74.77 -0.00723404
74.81 -0.00892045
74.82 -0.0205458