File: data/xrd/xy/2019-09-12T19_45_57.603044+00_00_LBL_G2.xy
'Id: "" Comment: "Integrate frame piperidinium_02_001.gfrmwith cursor Wedge Cursor #2" Operator: "UC Berkeley" Anode: "Co" Scantype: "TwoTheta" TimePerStep: "600"
13.76 -0.0259228
13.8 0.00163097
13.84 0.066201
13.88 -0.00680392
13.92 0.0302123
13.96 0.050482
14 0.00337458
14.04 0.0122728
14.08 0.000284306
14.12 0.0389839
14.16 0.0185663
14.2 0.0577072
14.24 0.0205754
14.28 0.0356283
14.32 0.0516242
14.36 0.00700953
14.4 0.0309463
14.44 0.024347
14.48 0.0281341
14.52 0.0151661
14.56 0.0573964
14.6 0.0104251
14.64 0.0366874
14.68 0.0637305
14.72 0.0250317
14.76 -0.00446551
14.8 0.0415499
14.84 0.0302507
14.88 0.0057606
14.92 0.0520044
14.96 0.0417757
15 0.0602762
15.04 0.0457046
15.08 0.0383515
15.12 0.0710804
15.16 0.0586428
15.2 0.0148918
15.24 0.0249728
15.28 0.0311221
15.32 0.0101609
15.36 0.0655958
15.4 0.030819
15.44 0.036686
15.48 0.0060622
15.52 0.0490002
15.56 0.0631052
15.6 0.0271013
15.64 0.0261161
15.68 0.0203296
15.72 0.0345391
15.76 0.0163004
15.8 0.0310632
15.84 0.0713078
15.88 -0.00294152
15.92 0.0054001
15.96 0.0424659
16 0.0261714
16.04 0.0164995
16.08 0.0416119
16.12 -0.00188125
16.16 0.0194613
16.2 0.0262085
16.24 0.0336426
16.28 0.014581
16.32 0.0200605
16.36 0.0543293
16.4 0.0667039
16.44 0.0453937
16.48 0.0404017
16.52 0.0446709
16.56 0.0232095
16.6 0.062845
16.64 0.0271993
16.68 0.00775957
16.72 0.00624298
16.76 0.0482349
16.8 0.0203627
16.84 0.0114956
16.88 0.060121
16.92 -0.0248699
16.96 0.0122752
17 0.0289623
17.04 0.0472626
17.08 0.0408245
17.12 0.0258301
17.16 0.0652363
17.2 0.0164714
17.24 0.0513127
17.28 0.0509391
17.32 0.0283774
17.36 0.0615446
17.4 0.0521212
17.44 0.038569
17.48 0.0258158
17.52 0.0441867
17.56 0.00596453
17.6 0.0921788
17.64 0.0052696
17.68 0.0319582
17.72 0.0091535
17.76 0.0301457
17.8 0.0792483
17.84 0.0403649
17.88 0.0291908
17.92 0.0532523
17.96 0.075864
18 0.0470486
18.04 0.0586868
18.08 0.0471785
18.12 0.0507994
18.16 0.0587918
18.2 0.0306203
18.24 0.0388492
18.28 0.0366384
18.32 0.0111455
18.36 0.019365
18.4 0.010949
18.44 0.00326869
18.48 0.03618
18.52 0.0332293
18.56 0.00228904
18.6 0.0184837
18.64 0.0120395
18.68 0.0453757
18.72 0.0169229
18.76 -0.00962649
18.8 0.0396417
18.84 0.028593
18.88 0.0115911
18.92 0.00769333
18.96 0.0243511
19 0.0501583
19.04 0.0220914
19.08 0.00184688
19.12 0.015765
19.16 0.0164027
19.2 0.0350381
19.24 0.0458985
19.28 0.0703454
19.32 0.0213821
19.36 0.000437425
19.4 0.0382903
19.44 0.0150334
19.48 0.0725804
19.52 0.0877867
19.56 0.0685204
19.6 0.0163347
19.64 -0.000843058
19.68 0.0198857
19.72 0.0316339
19.76 0.0498944
19.8 0.0775665
19.84 0.0548919
19.88 0.0539152
19.92 0.0422199
19.96 0.0164016
20 0.0396584
20.04 0.00687006
20.08 -0.0288022
20.12 0.0425962
20.16 0.0433422
20.2 0.0734311
20.24 0.0398157
20.28 0.0371636
20.32 0.150476
20.36 0.201011
20.4 0.326619
20.44 0.452402
20.48 0.511787
20.52 0.409482
20.56 0.271955
20.6 0.139941
20.64 0.0884044
20.68 0.0795846
20.72 0.0609176
20.76 0.0240826
20.8 0.058928
20.84 0.048525
20.88 -0.0018529
20.92 0.00171345
20.96 0.0374446
21 0.0468183
21.04 0.00904506
21.08 0.0546107
21.12 0.0472461
21.16 0.04482
21.2 0.0255226
21.24 0.0391865
21.28 0.0172676
21.32 0.055735
21.36 0.00185145
21.4 0.0203333
21.44 0.0435547
21.48 0.0246112
21.52 0.00610932
21.56 0.016676
21.6 0.015261
21.64 0.0117168
21.68 0.0475828
21.72 0.0645481
21.76 0.0314191
21.8 0.0322437
21.84 -0.00833619
21.88 0.0251413
21.92 0.0413343
21.96 0.0570913
22 0.0237555
22.04 0.0148391
22.08 0.0283428
22.12 0.0368831
22.16 0.0494115
22.2 0.0271033
22.24 0.0557721
22.28 0.0580211
22.32 0.0960478
22.36 0.0889896
22.4 0.118191
22.44 0.073346
22.48 0.0464468
22.52 0.0757039
22.56 0.0470162
22.6 0.0413614
22.64 0.0465645
22.68 0.0525001
22.72 0.0259759
22.76 0.0158874
22.8 0.0719195
22.84 0.0485881
22.88 0.0611685
22.92 0.0439837
22.96 0.051071
23 0.0266019
23.04 0.0512131
23.08 0.0385087
23.12 0.0286
23.16 0.0595666
23.2 0.0327612
23.24 0.0711511
23.28 0.0317269
23.32 -0.0265415
23.36 0.026503
23.4 0.0332459
23.44 0.0698934
23.48 0.0849756
23.52 0.200841
23.56 0.358215
23.6 0.423654
23.64 0.613506
23.68 0.652849
23.72 0.621601
23.76 0.3827
23.8 0.155861
23.84 0.0592626
23.88 0.0357417
23.92 0.0611093
23.96 0.0256066
24 0.016855
24.04 0.0288696
24.08 0.0252002
24.12 0.0296096
24.16 0.0252441
24.2 0.076716
24.24 0.0643452
24.28 0.0377719
24.32 0.049631
24.36 0.0378042
24.4 0.00514351
24.44 0.00323739
24.48 0.0691619
24.52 0.000404203
24.56 0.0102535
24.6 0.0282273
24.64 -0.00474849
24.68 0.0436862
24.72 0.0176873
24.76 0.0343072
24.8 -0.0126486
24.84 0.00844467
24.88 0.0231894
24.92 0.0525601
24.96 0.0273227
25 0.0158156
25.04 0.0259108
25.08 0.0125671
25.12 0.0484136
25.16 0.0183352
25.2 0.022364
25.24 0.0492237
25.28 0.00610159
25.32 0.0209852
25.36 0.049197
25.4 0.0629292
25.44 0.0380057
25.48 0.0515172
25.52 0.0382925
25.56 0.0437547
25.6 0.0639121
25.64 0.0646476
25.68 0.073606
25.72 0.151729
25.76 0.170869
25.8 0.145429
25.84 0.130962
25.88 0.0759357
25.92 0.0579297
25.96 0.00218238
26 0.0476952
26.04 0.0420123
26.08 0.023268
26.12 0.0462579
26.16 0.0451621
26.2 0.0712728
26.24 0.0984809
26.28 0.0863584
26.32 0.0580823
26.36 0.0375982
26.4 0.0280272
26.44 0.0147836
26.48 0.014155
26.52 0.037329
26.56 0.0204678
26.6 -0.00357362
26.64 -0.00334788
26.68 -0.00401557
26.72 0.00870571
26.76 0.01079
26.8 0.0135338
26.84 0.00780687
26.88 0.0372678
26.92 0.048767
26.96 0.0154363
27 0.0221846
27.04 -0.00746013
27.08 0.0357142
27.12 0.0561198
27.16 -0.0240452
27.2 0.010645
27.24 -0.00411358
27.28 0.0308056
27.32 -0.00790086
27.36 -0.021887
27.4 -0.00574681
27.44 0.0238099
27.48 0.0438607
27.52 -0.00719301
27.56 0.00389284
27.6 -0.0168815
27.64 0.02185
27.68 0.0130188
27.72 0.0226522
27.76 0.00461268
27.8 0.00597103
27.84 -0.00843468
27.88 -0.0140412
27.92 0.00920055
27.96 0.0137693
28 0.0317754
28.04 0.0241736
28.08 0.0331007
28.12 0.0228434
28.16 -0.00225638
28.2 0.00677958
28.24 0.00551382
28.28 0.0153465
28.32 0.0271346
28.36 0.015791
28.4 0.01338
28.44 0.0950453
28.48 0.0355701
28.52 0.0280681
28.56 0.0411966
28.6 0.143091
28.64 0.12838
28.68 0.139254
28.72 0.0859378
28.76 0.0375021
28.8 0.0361706
28.84 0.0126664
28.88 0.0303866
28.92 0.0543489
28.96 0.0710105
29 0.0995564
29.04 0.174593
29.08 0.318831
29.12 0.568245
29.16 0.847911
29.2 0.981508
29.24 0.830843
29.28 0.531784
29.32 0.287987
29.36 0.117446
29.4 0.0679269
29.44 0.0410645
29.48 0.0111669
29.52 0.0043655
29.56 0.0359204
29.6 0.0148133
29.64 0.031885
29.68 0.0465436
29.72 0.0322161
29.76 0.023622
29.8 0.0344085
29.84 0.0150147
29.88 -0.0111413
29.92 0.0201429
29.96 -0.0111966
30 0.00239578
30.04 -0.0216896
30.08 -0.0231992
30.12 0.037304
30.16 0.0273579
30.2 0.0191955
30.24 -0.00334612
30.28 0.0233128
30.32 0.0490875
30.36 0.0281465
30.4 0.121533
30.44 0.153676
30.48 0.216043
30.52 0.228557
30.56 0.210678
30.6 0.187037
30.64 0.108847
30.68 0.0790435
30.72 0.0475985
30.76 0.0392178
30.8 0.0225046
30.84 0.00195204
30.88 0.0173724
30.92 0.0241411
30.96 0.0323167
31 -0.018915
31.04 0.0209652
31.08 -0.00724583
31.12 -0.0060475
31.16 0.0170715
31.2 0.0255667
31.24 -0.0217619
31.28 0.0118154
31.32 0.000447929
31.36 0.00447051
31.4 0.0149194
31.44 0.0167699
31.48 0.0123513
31.52 -0.00475891
31.56 -0.0179942
31.6 0.00330271
31.64 0.0260585
31.68 0.000565379
31.72 0.0177203
31.76 0.0310827
31.8 0.0319656
31.84 0.0192185
31.88 0.00150471
31.92 0.00741849
31.96 0.015141
32 0.015629
32.04 -0.0128498
32.08 -0.0127877
32.12 -0.0199688
32.16 -0.0101715
32.2 -0.0238247
32.24 0.0241626
32.28 0.00235249
32.32 0.00208239
32.36 0.00604467
32.4 -0.0062836
32.44 0.0400596
32.48 9.57216e-05
32.52 0.0262593
32.56 -0.0133528
32.6 0.051037
32.64 0.034622
32.68 0.0969058
32.72 0.117968
32.76 0.229351
32.8 0.312733
32.84 0.328386
32.88 0.363014
32.92 0.329674
32.96 0.228463
33 0.160443
33.04 0.0895166
33.08 0.077537
33.12 0.0604645
33.16 0.0490348
33.2 0.0573814
33.24 0.0365632
33.28 0.0329957
33.32 0.0256322
33.36 0.0161522
33.4 -0.00982958
33.44 0.00950237
33.48 0.00526983
33.52 -0.00276509
33.56 0.0118366
33.6 0.00671514
33.64 0.00540802
33.68 -0.00395903
33.72 0.00632217
33.76 0.0136397
33.8 0.0209717
33.84 0.00814433
33.88 0.033962
33.92 0.0597687
33.96 0.0462849
34 0.0503891
34.04 0.0740691
34.08 0.0437744
34.12 0.0738245
34.16 0.0294531
34.2 0.0163828
34.24 -0.00349838
34.28 0.0107746
34.32 -0.000750949
34.36 -3.06961e-05
34.4 -0.00452472
34.44 -0.0106141
34.48 0.0141109
34.52 0.00989157
34.56 0.00896034
34.6 0.00325212
34.64 0.00108149
34.68 -0.00610211
34.72 0.00234567
34.76 -0.000209099
34.8 0.000145082
34.84 0.0195591
34.88 0.0506449
34.92 0.0570757
34.96 0.0977208
35 0.116194
35.04 0.133376
35.08 0.115437
35.12 0.0952536
35.16 0.119009
35.2 0.149443
35.24 0.173108
35.28 0.182699
35.32 0.169702
35.36 0.122954
35.4 0.0749937
35.44 0.0539703
35.48 0.0102976
35.52 0.0134706
35.56 0.00396386
35.6 0.00919524
35.64 -0.00470858
35.68 -0.00588842
35.72 -0.0227785
35.76 -0.000997923
35.8 -0.0028971
35.84 0.0108223
35.88 -0.0131053
35.92 0.0180447
35.96 0.0534308
36 0.0871949
36.04 0.174479
36.08 0.289775
36.12 0.51338
36.16 0.777196
36.2 1.09021
36.24 1.42324
36.28 1.79803
36.32 1.88704
36.36 1.68475
36.4 1.13665
36.44 0.729032
36.48 0.41145
36.52 0.183936
36.56 0.110568
36.6 0.0809448
36.64 0.0795919
36.68 0.0933809
36.72 0.180947
36.76 0.243756
36.8 0.273181
36.84 0.317968
36.88 0.294006
36.92 0.184515
36.96 0.151235
37 0.0847216
37.04 0.0533052
37.08 0.0168977
37.12 0.000311018
37.16 -0.00746057
37.2 0.0164721
37.24 0.000716268
37.28 -0.00716643
37.32 -0.00234574
37.36 0.001254
37.4 -0.00914463
37.44 0.00572521
37.48 0.00778903
37.52 -0.0177608
37.56 0.0153327
37.6 -0.0116663
37.64 -0.0152414
37.68 -0.02162
37.72 -0.0089696
37.76 1.714e-05
37.8 -0.0122959
37.84 -0.0154114
37.88 -0.0193351
37.92 0.0130197
37.96 -0.00426542
38 -0.00455839
38.04 -0.0045598
38.08 -0.00371458
38.12 -0.0216376
38.16 0.0075186
38.2 -0.00773379
38.24 -0.00437373
38.28 -0.00186623
38.32 0.0157465
38.36 0.0250385
38.4 0.0204087
38.44 0.0202193
38.48 0.0227173
38.52 0.0530569
38.56 0.0452444
38.6 0.0415506
38.64 0.0375756
38.68 0.0261547
38.72 0.0141533
38.76 0.00526342
38.8 0.0335942
38.84 0.0194424
38.88 -0.00615783
38.92 -0.00455149
38.96 0.0241576
39 0.0238458
39.04 0.0186252
39.08 0.0287195
39.12 0.00484245
39.16 0.0213159
39.2 0.0190979
39.24 0.014468
39.28 0.0178535
39.32 0.0149661
39.36 -0.00819642
39.4 0.00220651
39.44 -0.000571729
39.48 0.00794031
39.52 0.00463936
39.56 0.0208338
39.6 0.0497941
39.64 0.0974165
39.68 0.135778
39.72 0.219853
39.76 0.304489
39.8 0.372238
39.84 0.408536
39.88 0.343584
39.92 0.268383
39.96 0.196238
40 0.132842
40.04 0.104449
40.08 0.0878726
40.12 0.0553833
40.16 0.0620388
40.2 0.0289732
40.24 0.0236613
40.28 0.0178804
40.32 0.0139967
40.36 -0.00265086
40.4 0.00975388
40.44 0.0125149
40.48 -0.00506451
40.52 0.00929826
40.56 0.0164306
40.6 -0.0146121
40.64 0.0152706
40.68 -0.0130326
40.72 -0.00311696
40.76 0.00667525
40.8 -0.000831893
40.84 0.011846
40.88 0.0102212
40.92 0.00626133
40.96 -0.00814149
41 -0.00125197
41.04 0.00353825
41.08 0.0141064
41.12 0.0112279
41.16 0.0214986
41.2 0.0194576
41.24 0.0519197
41.28 0.0713739
41.32 0.11262
41.36 0.149125
41.4 0.260769
41.44 0.362629
41.48 0.524017
41.52 0.69485
41.56 0.825499
41.6 0.902228
41.64 0.940673
41.68 1.0204
41.72 0.966001
41.76 0.81174
41.8 0.67887
41.84 0.487875
41.88 0.392453
41.92 0.295676
41.96 0.208524
42 0.150321
42.04 0.136615
42.08 0.105267
42.12 0.0545298
42.16 0.0295478
42.2 0.0150491
42.24 0.0162969
42.28 0.00472711
42.32 0.0116925
42.36 0.00455251
42.4 0.00360286
42.44 -0.00242244
42.48 -0.0157831
42.52 -0.00171099
42.56 -0.0078131
42.6 0.0115188
42.64 0.0352813
42.68 0.00834618
42.72 0.00716973
42.76 0.023891
42.8 0.0241503
42.84 0.0252853
42.88 0.0251819
42.92 0.0211293
42.96 0.0182067
43 0.000474164
43.04 0.0160759
43.08 -0.00266437
43.12 0.0162601
43.16 0.0125548
43.2 -0.0154366
43.24 -0.00837399
43.28 0.0069499
43.32 -0.0028159
43.36 0.0207447
43.4 0.0333319
43.44 -0.000887778
43.48 0.0159806
43.52 0.0133707
43.56 0.00388416
43.6 0.000799811
43.64 0.00645748
43.68 0.0197505
43.72 0.00652574
43.76 0.00851838
43.8 -0.00698449
43.84 -0.0160045
43.88 -0.00443198
43.92 -0.013367
43.96 -0.005019
44 0.000100906
44.04 -0.00544901
44.08 0.00209891
44.12 0.0120571
44.16 0.0113145
44.2 0.0122761
44.24 0.0017973
44.28 0.00713816
44.32 0.00190014
44.36 0.0125685
44.4 0.0139849
44.44 0.0249297
44.48 0.00385249
44.52 0.0272787
44.56 -0.00143571
44.6 0.0148523
44.64 -0.0139936
44.68 0.0189892
44.72 0.0245534
44.76 0.00252497
44.8 0.0109635
44.84 0.0359339
44.88 0.0255052
44.92 0.0402782
44.96 0.0207677
45 0.0143232
45.04 0.0296505
45.08 0.0171424
45.12 0.0218461
45.16 -0.00242174
45.2 0.00389364
45.24 0.00774491
45.28 0.0029735
45.32 0.00660705
45.36 0.00069397
45.4 0.0035793
45.44 0.00145941
45.48 0.00779045
45.52 -0.00451594
45.56 0.00369882
45.6 0.0269408
45.64 -0.0138286
45.68 0.000965281
45.72 0.00861515
45.76 0.0144508
45.8 0.0165656
45.84 0.00852506
45.88 0.0280813
45.92 0.0184134
45.96 0.0545224
46 0.122985
46.04 0.175596
46.08 0.256448
46.12 0.288469
46.16 0.271751
46.2 0.231731
46.24 0.213909
46.28 0.17221
46.32 0.173186
46.36 0.074057
46.4 0.0622171
46.44 0.0227076
46.48 0.0421399
46.52 0.0283872
46.56 0.0251508
46.6 0.0116039
46.64 0.00977905
46.68 -0.00237841
46.72 0.00999603
46.76 0.00200178
46.8 -0.0159567
46.84 -0.0158374
46.88 -0.00494062
46.92 -0.00480502
46.96 -0.0036604
47 0.00985456
47.04 0.0112344
47.08 0.0180733
47.12 0.0170099
47.16 0.0449912
47.2 0.0633069
47.24 0.0758274
47.28 0.0733911
47.32 0.0499695
47.36 0.0443845
47.4 0.0171532
47.44 0.00995817
47.48 0.00552338
47.52 -0.0016722
47.56 0.00399882
47.6 0.038425
47.64 0.0180708
47.68 0.0625515
47.72 0.0878969
47.76 0.122476
47.8 0.151438
47.84 0.152302
47.88 0.196344
47.92 0.201996
47.96 0.173919
48 0.196873
48.04 0.211923
48.08 0.28689
48.12 0.329072
48.16 0.453933
48.2 0.533392
48.24 0.64713
48.28 0.69144
48.32 0.760252
48.36 0.843628
48.4 0.891441
48.44 1.08435
48.48 1.63428
48.52 2.12792
48.56 2.40571
48.6 1.92682
48.64 1.2097
48.68 0.634663
48.72 0.254261
48.76 0.116084
48.8 0.0811179
48.84 0.0357467
48.88 0.0444318
48.92 0.0169317
48.96 0.0270681
49 0.0213588
49.04 0.0190142
49.08 0.00961318
49.12 -0.0026354
49.16 0.00850575
49.2 0.0105148
49.24 0.0209665
49.28 0.0109244
49.32 0.0197885
49.36 0.0128843
49.4 0.010903
49.44 0.0481618
49.48 0.0470183
49.52 0.0612293
49.56 0.106993
49.6 0.121471
49.64 0.181331
49.68 0.28611
49.72 0.431712
49.76 0.702446
49.8 0.995655
49.84 1.29959
49.88 1.53765
49.92 1.5655
49.96 1.47357
50 1.14073
50.04 0.845338
50.08 0.593422
50.12 0.367703
50.16 0.203069
50.2 0.104752
50.24 0.0510279
50.28 0.0369855
50.32 0.0322733
50.36 0.000703145
50.4 0.0157298
50.44 0.00334587
50.48 0.00601609
50.52 0.00263602
50.56 -0.00148934
50.6 0.0025478
50.64 -0.00409367
50.68 -0.00424159
50.72 -0.0115462
50.76 -0.010461
50.8 -0.0185294
50.84 -0.0139823
50.88 -0.0105435
50.92 -0.0151594
50.96 -0.00767919
51 -0.000938546
51.04 -0.0118574
51.08 -0.000852002
51.12 -0.00462224
51.16 -0.00482906
51.2 -0.0198528
51.24 -0.00773134
51.28 0.00893382
51.32 0.0182067
51.36 0.0295149
51.4 0.0381768
51.44 0.0346571
51.48 0.0627705
51.52 0.0999484
51.56 0.0912664
51.6 0.0844548
51.64 0.104841
51.68 0.106435
51.72 0.168276
51.76 0.241363
51.8 0.311026
51.84 0.401919
51.88 0.483038
51.92 0.508448
51.96 0.585725
52 0.79786
52.04 1.29449
52.08 2.07521
52.12 2.47598
52.16 2.08706
52.2 1.26569
52.24 0.701323
52.28 0.386137
52.32 0.237265
52.36 0.1506
52.4 0.0719969
52.44 0.030157
52.48 0.0114312
52.52 -0.00926296
52.56 0.00403576
52.6 -0.013796
52.64 -0.000975885
52.68 -0.0202642
52.72 -0.000975703
52.76 -0.00796908
52.8 -0.010701
52.84 -0.0207368
52.88 -0.00744152
52.92 -0.00503776
52.96 -0.00678503
53 -0.0179221
53.04 -0.00613559
53.08 0.000876838
53.12 -0.0142586
53.16 0.0213069
53.2 0.0293056
53.24 0.0546254
53.28 0.0518738
53.32 0.0663072
53.36 0.0752486
53.4 0.0855228
53.44 0.0646572
53.48 0.0762862
53.52 0.0451629
53.56 0.0254391
53.6 0.00671917
53.64 -0.00271126
53.68 -0.0185085
53.72 -0.00211547
53.76 -0.0127388
53.8 -0.00880284
53.84 -0.0209602
53.88 0.00250222
53.92 0.0251094
53.96 0.0301253
54 0.0456541
54.04 0.0641822
54.08 0.0572899
54.12 0.0430106
54.16 0.0352002
54.2 0.00954814
54.24 0.0133238
54.28 0.0154902
54.32 0.0144454
54.36 0.0198769
54.4 0.0663841
54.44 0.101309
54.48 0.16461
54.52 0.193296
54.56 0.214516
54.6 0.215778
54.64 0.183228
54.68 0.154933
54.72 0.114325
54.76 0.0711153
54.8 0.0371723
54.84 0.0186103
54.88 0.00784715
54.92 0.00284373
54.96 0.0238925
55 0.0171663
55.04 0.0131055
55.08 0.0264656
55.12 0.0118926
55.16 0.01537
55.2 -0.000194174
55.24 0.00883984
55.28 0.0114587
55.32 0.0305852
55.36 0.0771073
55.4 0.0857023
55.44 0.0978649
55.48 0.107995
55.52 0.159888
55.56 0.214282
55.6 0.344006
55.64 0.455804
55.68 0.536521
55.72 0.545794
55.76 0.540367
55.8 0.436941
55.84 0.357428
55.88 0.245162
55.92 0.154722
55.96 0.0995234
56 0.058554
56.04 0.0164682
56.08 0.0236116
56.12 -0.00626312
56.16 0.0150999
56.2 -0.00191535
56.24 -0.00186543
56.28 0.00605271
56.32 0.00101105
56.36 -0.0119368
56.4 -0.0141898
56.44 -0.00767937
56.48 -0.00628875
56.52 0.0113283
56.56 0.00635685
56.6 0.00606331
56.64 -0.00644135
56.68 -0.0113631
56.72 0.00808469
56.76 -0.00440191
56.8 0.0130955
56.84 0.000477352
56.88 -0.000380896
56.92 -0.00913464
56.96 0.00867423
57 -0.00124421
57.04 -0.00530811
57.08 -0.000243738
57.12 -0.00167932
57.16 0.00785825
57.2 -0.00492411
57.24 0.00787072
57.28 0.0141231
57.32 0.00300604
57.36 -0.00683623
57.4 0.0158887
57.44 0.00474007
57.48 0.0104967
57.52 0.0070552
57.56 -0.0126378
57.6 -0.00462842
57.64 0.02613
57.68 -0.000841139
57.72 0.00676815
57.76 -0.0128791
57.8 0.00201203
57.84 0.00407866
57.88 -0.00235627
57.92 -0.00833955
57.96 0.00126988
58 0.0157531
58.04 0.00632112
58.08 -0.00940256
58.12 0.0094519
58.16 0.00850871
58.2 -0.00274061
58.24 0.0133793
58.28 -0.00043478
58.32 0.00649163
58.36 -0.00286934
58.4 -0.00204029
58.44 -0.0141293
58.48 0.0023722
58.52 -0.00396516
58.56 0.00715563
58.6 0.00991491
58.64 0.0242359
58.68 0.00497031
58.72 0.000828895
58.76 0.00449485
58.8 0.00735359
58.84 -0.00267842
58.88 0.0151845
58.92 -0.00477986
58.96 0.00674053
59 -0.0013516
59.04 -0.00146207
59.08 0.0027618
59.12 0.00949613
59.16 0.00480454
59.2 0.000157226
59.24 -0.00851473
59.28 0.019151
59.32 0.0273735
59.36 0.0406654
59.4 0.0531809
59.44 0.0606822
59.48 0.0447124
59.52 0.0409159
59.56 0.0414459
59.6 0.0567989
59.64 0.0591959
59.68 0.0878166
59.72 0.0883393
59.76 0.0898704
59.8 0.0590462
59.84 0.04325
59.88 0.0571914
59.92 0.0312266
59.96 0.0292529
60 0.0153908
60.04 0.0114092
60.08 -0.00388349
60.12 0.00769861
60.16 -0.00050064
60.2 0.000809759
60.24 0.0243194
60.28 0.0071252
60.32 0.0268987
60.36 0.0435019
60.4 0.0440911
60.44 0.0370456
60.48 0.0697029
60.52 0.0804614
60.56 0.107225
60.6 0.156088
60.64 0.151145
60.68 0.180402
60.72 0.117027
60.76 0.0824015
60.8 0.0777257
60.84 0.0580058
60.88 0.0441934
60.92 0.0183822
60.96 0.00748471
61 -0.0069496
61.04 0.0103582
61.08 0.00664556
61.12 -0.0121407
61.16 -0.0102782
61.2 0.032322
61.24 0.00580397
61.28 0.00575351
61.32 0.0146188
61.36 -0.00601959
61.4 0.00294405
61.44 -0.00891249
61.48 0.0121735
61.52 0.0180817
61.56 0.030204
61.6 0.0366993
61.64 0.0518086
61.68 0.0676428
61.72 0.0628966
61.76 0.0832965
61.8 0.0885695
61.84 0.136041
61.88 0.160366
61.92 0.225761
61.96 0.270056
62 0.322903
62.04 0.393907
62.08 0.426023
62.12 0.440681
62.16 0.384286
62.2 0.318278
62.24 0.224694
62.28 0.143819
62.32 0.0894702
62.36 0.0645467
62.4 0.0291112
62.44 0.0128269
62.48 0.0204624
62.52 0.00993884
62.56 0.0101106
62.6 -0.00377626
62.64 0.00615681
62.68 0.00670459
62.72 0.0061963
62.76 0.00191346
62.8 0.0026829
62.84 0.012258
62.88 0.000630949
62.92 -0.0179177
62.96 -0.00672608
63 0.0155261
63.04 -0.00894497
63.08 -0.00965482
63.12 0.00942687
63.16 0.00718444
63.2 0.00248421
63.24 0.00226416
63.28 0.0127739
63.32 0.0208272
63.36 0.00642068
63.4 0.0243446
63.44 0.0180224
63.48 0.0194105
63.52 0.0366939
63.56 0.0645466
63.6 0.0353406
63.64 0.0476609
63.68 0.0302862
63.72 0.0208792
63.76 0.0171304
63.8 0.029807
63.84 0.0305289
63.88 0.00457215
63.92 -0.00489914
63.96 -0.00848955
64 -0.000617164
64.04 -0.00684707
64.08 0.0189684
64.12 0.00757511
64.16 0.0243677
64.2 0.0576105
64.24 0.126236
64.28 0.231608
64.32 0.315188
64.36 0.358622
64.4 0.292788
64.44 0.236691
64.48 0.125197
64.52 0.101644
64.56 0.0918111
64.6 0.0498959
64.64 0.0434438
64.68 0.0373361
64.72 0.0234249
64.76 0.020058
64.8 0.0151325
64.84 -0.00320871
64.88 0.00726317
64.92 0.00223203
64.96 0.00689476
65 0.00366472
65.04 -0.0100136
65.08 0.00902598
65.12 0.0177345
65.16 0.028364
65.2 0.0443949
65.24 0.048974
65.28 0.0251961
65.32 0.0258546
65.36 0.0220015
65.4 0.0126817
65.44 -0.00339336
65.48 -0.0116201
65.52 -0.0130592
65.56 -0.0105914
65.6 -0.0132199
65.64 -0.00281748
65.68 -0.000482384
65.72 -0.0140152
65.76 0.00379654
65.8 -0.00523636
65.84 0.0112368
65.88 0.0223476
65.92 0.0263474
65.96 0.0193792
66 0.01293
66.04 0.0361317
66.08 0.0324269
66.12 0.0332425
66.16 0.0359489
66.2 0.0402206
66.24 0.032282
66.28 0.0559005
66.32 0.0345419
66.36 0.0419609
66.4 0.0508218
66.44 0.0561294
66.48 0.0646725
66.52 0.0603477
66.56 0.0488194
66.6 0.0718018
66.64 0.0882208
66.68 0.0540129
66.72 0.0745964
66.76 0.0465509
66.8 0.0513085
66.84 0.0492063
66.88 0.0426181
66.92 0.0283348
66.96 0.0410615
67 0.00910948
67.04 0.00725079
67.08 -0.00161952
67.12 -0.00335606
67.16 0.00110743
67.2 0.000413055
67.24 0.000506402
67.28 -0.00162956
67.32 0.00447577
67.36 0.00891606
67.4 -0.00262782
67.44 0.0158563
67.48 0.00650625
67.52 0.00535504
67.56 -0.016686
67.6 0.00935373
67.64 0.00779959
67.68 -0.00232699
67.72 0.00932062
67.76 0.0191968
67.8 0.00201594
67.84 -0.000731709
67.88 0.0106637
67.92 0.0174566
67.96 0.0248611
68 0.036339
68.04 0.0264125
68.08 0.050539
68.12 0.0348704
68.16 0.028066
68.2 0.0320577
68.24 0.0355234
68.28 0.0234483
68.32 0.039201
68.36 0.0294487
68.4 0.0227083
68.44 0.023063
68.48 0.0189326
68.52 0.00686333
68.56 0.00788468
68.6 0.00206769
68.64 0.00215009
68.68 0.00698118
68.72 0.0114732
68.76 0.0110732
68.8 0.00558936
68.84 0.00774013
68.88 0.0172065
68.92 0.0169918
68.96 0.0180722
69 0.00637383
69.04 0.00101738
69.08 0.00460831
69.12 0.0247024
69.16 0.00144117
69.2 0.038506
69.24 0.0414969
69.28 0.0472827
69.32 0.0385482
69.36 0.0262345
69.4 0.00235239
69.44 0.0107683
69.48 -0.00419205
69.52 -0.00102641
69.56 -0.00122407
69.6 -0.0147281
69.64 -0.00248846
69.68 -0.00961686
69.72 -0.00171707
69.76 -0.00622042
69.8 -0.00484763
69.84 -0.0077814
69.88 -8.79209e-06
69.92 -0.00607739
69.96 -0.0134078
70 -0.012569
70.04 -0.0107028
70.08 0.00912108
70.12 0.00691231
70.16 0.0183962
70.2 0.0198485
70.24 0.0371605
70.28 0.0570928
70.32 0.0694596
70.36 0.0783539
70.4 0.0696298
70.44 0.104033
70.48 0.132391
70.52 0.203389
70.56 0.2872
70.6 0.328049
70.64 0.299263
70.68 0.226392
70.72 0.171919
70.76 0.108315
70.8 0.0662153
70.84 0.044363
70.88 0.0414332
70.92 0.0193096
70.96 0.007957
71 0.0147199
71.04 0.00964399
71.08 0.00451553
71.12 -0.00986739
71.16 -0.00235579
71.2 -0.00304639
71.24 -0.00680964
71.255 -0.0169415