File: data/xrd/xy/2019-06-18T19_59_27.923270+00_00_LBL_A1.xy
'Id: "" Comment: "Integrate frame 20190716_acnh3_nprop_4flph_06_003.gfrmwith cursor Wedge Cursor #4" Operator: "UC Berkeley" Anode: "Co" Scantype: "TwoTheta" TimePerStep: "450"
24.55 -0.0442507
24.585 0.0247256
24.62 0.0170972
24.655 0.0390445
24.69 0.102768
24.725 0.0309054
24.76 -0.0108907
24.795 0.0887764
24.83 0.00317954
24.865 0.100145
24.9 0.0925342
24.935 0.0488838
24.97 0.113062
25.005 0.110101
25.04 0.14967
25.075 0.0619405
25.11 0.14575
25.145 -0.000660243
25.18 0.0744409
25.215 0.0270386
25.25 0.145961
25.285 0.0648084
25.32 0.129642
25.355 0.0451133
25.39 0.0810311
25.425 0.0959767
25.46 0.10033
25.495 0.0628562
25.53 0.0305726
25.565 0.0981984
25.6 0.142016
25.635 0.119481
25.67 0.15147
25.705 0.0680008
25.74 0.123003
25.775 0.083506
25.81 0.0855937
25.845 0.0675205
25.88 0.0477929
25.915 0.0482929
25.95 0.0400509
25.985 0.119329
26.02 0.15135
26.055 0.129604
26.09 0.198367
26.125 0.186958
26.16 0.28016
26.195 0.32335
26.23 0.335393
26.265 0.35711
26.3 0.352623
26.335 0.267919
26.37 0.222843
26.405 0.0584089
26.44 0.0887239
26.475 0.078653
26.51 0.041186
26.545 0.0823566
26.58 0.116949
26.615 0.119497
26.65 0.0940623
26.685 0.088198
26.72 0.064981
26.755 0.100329
26.79 0.0702449
26.825 0.0647981
26.86 0.136064
26.895 0.132885
26.93 0.121433
26.965 0.0228806
27 0.066109
27.035 0.0688322
27.07 0.0765802
27.105 -0.014264
27.14 0.0565784
27.175 0.0352352
27.21 0.150184
27.245 0.0920091
27.28 0.115848
27.315 0.0433171
27.35 0.129654
27.385 -0.0329276
27.42 0.0987776
27.455 0.086719
27.49 0.0780307
27.525 0.129102
27.56 0.10463
27.595 0.0653897
27.63 0.160918
27.665 0.0874608
27.7 0.13252
27.735 0.0807537
27.77 0.0312385
27.805 0.0814562
27.84 0.0866154
27.875 0.0939207
27.91 0.103206
27.945 0.0473341
27.98 -0.0348264
28.015 0.102681
28.05 0.0342792
28.085 0.0759524
28.12 0.0510774
28.155 0.0384203
28.19 0.0323892
28.225 0.0858927
28.26 0.0723355
28.295 -0.0230199
28.33 0.0666857
28.365 0.0622947
28.4 0.0473812
28.435 0.0627626
28.47 0.0622146
28.505 0.0398551
28.54 0.131855
28.575 0.0388707
28.61 0.0546512
28.645 0.130682
28.68 0.0121195
28.715 0.139349
28.75 0.0669123
28.785 0.0567174
28.82 0.0836967
28.855 0.084255
28.89 0.0643919
28.925 0.0217889
28.96 0.0420005
28.995 0.0170613
29.03 0.0224026
29.065 0.0784126
29.1 0.0136136
29.135 0.048595
29.17 0.0171006
29.205 0.00511491
29.24 0.057253
29.275 0.022806
29.31 0.0469995
29.345 0.0562574
29.38 0.00172079
29.415 0.107863
29.45 0.0920615
29.485 0.0733228
29.52 -0.0203378
29.555 0.0284457
29.59 0.0115577
29.625 0.0944531
29.66 0.0705438
29.695 0.139277
29.73 0.192344
29.765 0.16743
29.8 0.155972
29.835 0.160475
29.87 0.111477
29.905 0.164036
29.94 0.170456
29.975 0.338567
30.01 0.450716
30.045 0.731251
30.08 1.40277
30.115 2.57096
30.15 4.23916
30.185 5.82466
30.22 6.99537
30.255 6.93054
30.29 5.6073
30.325 3.86069
30.36 2.36965
30.395 1.27713
30.43 0.62997
30.465 0.348963
30.5 0.18089
30.535 0.0426303
30.57 0.0625357
30.605 0.0870908
30.64 0.0555366
30.675 0.0883658
30.71 0.105662
30.745 0.0416328
30.78 0.119463
30.815 0.0830492
30.85 0.0695998
30.885 0.0114298
30.92 0.0123689
30.955 -0.0311048
30.99 0.0379737
31.025 -0.0258028
31.06 0.0721457
31.095 0.0722385
31.13 0.0796608
31.165 -0.00570026
31.2 0.0642596
31.235 0.045264
31.27 0.0438048
31.305 0.0175637
31.34 0.050935
31.375 0.0512004
31.41 0.0361134
31.445 0.0468422
31.48 0.0349533
31.515 0.0294546
31.55 -0.0133521
31.585 0.00602382
31.62 0.0316561
31.655 0.0123568
31.69 -0.00245484
31.725 0.0107094
31.76 0.0592656
31.795 0.0704129
31.83 0.0543458
31.865 0.0719722
31.9 -0.036024
31.935 0.0129873
31.97 0.0230649
32.005 0.0298963
32.04 0.0752854
32.075 0.0895264
32.11 0.0349359
32.145 0.0203401
32.18 0.0237239
32.215 0.011825
32.25 0.0240386
32.285 0.0340647
32.32 -0.00654187
32.355 0.0447859
32.39 0.056834
32.425 -0.0204119
32.46 0.0340821
32.495 -0.00709216
32.53 0.00876031
32.565 -0.0314513
32.6 0.00876414
32.635 0.0365871
32.67 0.0162533
32.705 0.0164865
32.74 -0.0202409
32.775 -0.00298274
32.81 0.00338952
32.845 0.00287123
32.88 -0.0208069
32.915 0.0168788
32.95 0.0099294
32.985 -0.00736786
33.02 0.0134108
33.055 0.0198266
33.09 0.0342069
33.125 0.0331865
33.16 0.00822169
33.195 -0.0158109
33.23 0.00697596
33.265 0.0400423
33.3 0.0262889
33.335 -0.00768831
33.37 0.00143137
33.405 0.034087
33.44 -0.0238629
33.475 -0.000544798
33.51 0.0436916
33.545 0.00459154
33.58 0.0308994
33.615 0.0226383
33.65 -0.00835286
33.685 0.0470794
33.72 -0.0236649
33.755 0.0451869
33.79 0.0707693
33.825 0.0755304
33.86 -0.0241701
33.895 0.0092914
33.93 0.0668585
33.965 0.036944
34 0.0454697
34.035 0.0545087
34.07 0.00697312
34.105 -0.0157206
34.14 0.0109335
34.175 0.00375796
34.21 -0.0243207
34.245 0.00290249
34.28 0.0586154
34.315 0.0131951
34.35 -0.0152811
34.385 0.0312158
34.42 0.0155555
34.455 0.0519619
34.49 0.0300754
34.525 0.0222696
34.56 0.0269692
34.595 0.00495959
34.63 0.0516304
34.665 0.045055
34.7 0.0551838
34.735 0.0653855
34.77 0.00348766
34.805 -0.0336618
34.84 0.0224724
34.875 0.0443282
34.91 0.0603724
34.945 -0.00241643
34.98 -0.0250303
35.015 0.00723828
35.05 0.0264808
35.085 0.01317
35.12 -6.00479e-05
35.155 0.0137677
35.19 0.0395515
35.225 -0.015437
35.26 0.0102199
35.295 0.030957
35.33 0.00852743
35.365 0.0142834
35.4 0.00483707
35.435 0.00464488
35.47 -0.0120608
35.505 0.0156796
35.54 0.0254087
35.575 0.0291433
35.61 0.00160749
35.645 0.0449448
35.68 -0.0333315
35.715 -0.00524927
35.75 0.0145216
35.785 0.0191884
35.82 0.0156594
35.855 0.0211829
35.89 -0.00661566
35.925 0.0112086
35.96 0.0187264
35.995 0.0222418
36.03 -0.00244006
36.065 0.0196437
36.1 0.021734
36.135 0.0358234
36.17 -0.0185504
36.205 -0.0168961
36.24 -0.00363738
36.275 0.0412392
36.31 0.0256119
36.345 -0.00291825
36.38 0.0421996
36.415 0.0403312
36.45 0.0276973
36.485 -0.0325715
36.52 -0.00331191
36.555 0.00548124
36.59 0.0508428
36.625 0.014642
36.66 0.0255896
36.695 0.0225935
36.73 0.0286948
36.765 0.027815
36.8 -0.0013649
36.835 -0.00823401
36.87 0.0352752
36.905 0.0200566
36.94 0.0432971
36.975 -9.39317e-05
37.01 0.0238344
37.045 0.00832432
37.08 0.0189753
37.115 0.0465152
37.15 -0.0321359
37.185 0.0253742
37.22 0.0464377
37.255 -0.0166661
37.29 0.0716107
37.325 0.00728356
37.36 0.00777364
37.395 0.0395002
37.43 0.029393
37.465 0.0403745
37.5 0.0242158
37.535 0.0119362
37.57 0.0139629
37.605 0.035424
37.64 0.00313257
37.675 0.00731121
37.71 0.0276354
37.745 0.0506966
37.78 0.00560194
37.815 0.00919776
37.85 0.0516576
37.885 0.034099
37.92 0.0284878
37.955 0.0412273
37.99 0.00525025
38.025 0.0404894
38.06 0.0168539
38.095 0.0301993
38.13 0.0279109
38.165 0.00616625
38.2 0.00584398
38.235 0.00575231
38.27 0.0156275
38.305 0.000484176
38.34 0.0311454
38.375 0.0321877
38.41 0.0290199
38.445 -0.0276806
38.48 0.00047649
38.515 0.00616761
38.55 -0.00923653
38.585 -0.013832
38.62 -0.0016005
38.655 -0.0046024
38.69 0.00286988
38.725 0.0206937
38.76 0.0032437
38.795 -0.015964
38.83 0.00308578
38.865 0.0054277
38.9 -0.00111114
38.935 0.0123539
38.97 -0.0195717
39.005 -0.0150352
39.04 -0.00781465
39.075 0.00925713
39.11 -0.000330654
39.145 0.00207071
39.18 -0.0155488
39.215 0.0112149
39.25 0.00381349
39.285 -0.016505
39.32 0.0218268
39.355 -0.032058
39.39 0.028059
39.425 -0.0154396
39.46 0.0151235
39.495 -0.00589205
39.53 0.0301384
39.565 0.0397512
39.6 0.0119977
39.635 0.0129636
39.67 0.0837297
39.705 0.0785295
39.74 0.0544529
39.775 0.121495
39.81 0.211917
39.845 0.344556
39.88 0.597699
39.915 1.11969
39.95 1.80012
39.985 2.71381
40.02 3.50285
40.055 4.01441
40.09 3.8152
40.125 3.38244
40.16 2.64357
40.195 1.94367
40.23 1.31433
40.265 0.834315
40.3 0.524494
40.335 0.377635
40.37 0.183421
40.405 0.125011
40.44 0.104847
40.475 0.0344185
40.51 0.0775225
40.545 0.0486958
40.58 0.0264369
40.615 0.0515829
40.65 -0.0183865
40.685 -0.00382511
40.72 -0.00779311
40.755 0.035146
40.79 -0.00735107
40.825 -0.00362437
40.86 0.0141919
40.895 -0.00572333
40.93 0.00950721
40.965 0.0306918
41 -0.000698396
41.035 0.0428541
41.07 0.0289807
41.105 0.00285428
41.14 0.01472
41.175 0.0139138
41.21 -0.00804268
41.245 -0.0120699
41.28 -0.0283506
41.315 0.0272339
41.35 -0.00255493
41.385 0.0262188
41.42 0.00908961
41.455 0.0576516
41.49 0.00630142
41.525 -0.00274789
41.56 0.00284643
41.595 0.00469224
41.63 -0.0151484
41.665 0.0114244
41.7 0.0158786
41.735 -0.0281027
41.77 0.0322595
41.805 0.00507936
41.84 0.0173518
41.875 0.00587447
41.91 0.0236959
41.945 0.00905216
41.98 0.0244942
42.015 0.0326411
42.05 -0.00512532
42.085 0.0274534
42.12 0.0102182
42.155 0.0254618
42.19 0.0325522
42.225 0.0260217
42.26 0.0197592
42.295 0.013973
42.33 -0.00694656
42.365 0.0111584
42.4 -0.00199933
42.435 -0.0189949
42.47 0.0575394
42.505 0.0666661
42.54 0.0183408
42.575 -0.00867611
42.61 0.00098246
42.645 0.0448313
42.68 0.0112685
42.715 -0.00392422
42.75 0.00894149
42.785 0.00839952
42.82 0.0536077
42.855 0.0654982
42.89 0.0966425
42.925 0.030845
42.96 0.0283994
42.995 -0.00493692
43.03 0.0127476
43.065 0.0472556
43.1 0.0358166
43.135 0.0744521
43.17 0.0524912
43.205 0.0574707
43.24 0.0121311
43.275 0.048101
43.31 0.0267288
43.345 0.0301654
43.38 0.044224
43.415 0.0482057
43.45 0.020387
43.485 0.0404908
43.52 0.0298069
43.555 0.00414357
43.59 0.0175379
43.625 -0.0261295
43.66 -0.0300635
43.695 0.0484018
43.73 0.0491471
43.765 0.0125412
43.8 0.0465897
43.835 0.0188177
43.87 -0.015508
43.905 0.0148523
43.94 0.0122324
43.975 0.00330313
44.01 0.0323494
44.045 0.0442194
44.08 0.00913245
44.115 0.00218005
44.15 0.0331339
44.185 0.0140104
44.22 0.0280534
44.255 0.00192197
44.29 -0.0216221
44.325 0.0029562
44.36 0.0185083
44.395 0.01646
44.43 0.0247227
44.465 0.0158682
44.5 0.000404947
44.535 -0.000463626
44.57 0.0337283
44.605 0.0309842
44.64 0.00084869
44.675 -0.000160684
44.71 0.0168769
44.745 0.0596966
44.78 -0.029998
44.815 0.0349646
44.85 0.0102932
44.885 0.0109514
44.92 0.0613516
44.955 0.0183876
44.99 0.0374017
45.025 0.0460082
45.06 0.0862651
45.095 0.106825
45.13 0.196698
45.165 0.298227
45.2 0.417648
45.235 0.46705
45.27 0.471308
45.305 0.469328
45.34 0.332155
45.375 0.314404
45.41 0.245606
45.445 0.181406
45.48 0.0805169
45.515 0.0697692
45.55 0.0158105
45.585 -0.0207315
45.62 0.0627821
45.655 -0.0168319
45.69 -0.0112288
45.725 -0.0165978
45.76 0.0257939
45.795 0.0279042
45.83 0.0362139
45.865 0.0410639
45.9 0.0328076
45.935 0.0659872
45.97 0.0808966
46.005 0.149804
46.04 0.279954
46.075 0.434649
46.11 0.814896
46.145 1.32726
46.18 1.97101
46.215 2.58924
46.25 3.09707
46.285 3.3486
46.32 3.18407
46.355 2.76328
46.39 2.15269
46.425 1.67482
46.46 1.16225
46.495 0.873617
46.53 0.582312
46.565 0.322961
46.6 0.250465
46.635 0.102957
46.67 0.0984888
46.705 0.0457552
46.74 0.0408322
46.775 0.061621
46.81 0.0486254
46.845 0.0464777
46.88 0.0160952
46.915 -0.0262762
46.95 0.0209147
46.985 0.0529598
47.02 0.021321
47.055 0.0147883
47.09 0.011398
47.125 0.0394908
47.16 0.0526539
47.195 0.0390936
47.23 0.00459424
47.265 0.0107737
47.3 0.0138743
47.335 0.039972
47.37 0.065466
47.405 -0.00876804
47.44 0.0430705
47.475 0.0463513
47.51 0.00981488
47.545 0.00882678
47.58 0.0622953
47.615 0.0371543
47.65 0.0184897
47.685 0.0576889
47.72 0.0370275
47.755 0.0369848
47.79 3.34387e-05
47.825 0.0117211
47.86 0.0669317
47.895 -0.00805769
47.93 0.0229994
47.965 0.0227844
48 -0.0117751
48.035 0.0373466
48.07 -0.00205755
48.105 0.00715732
48.14 -0.000269901
48.175 0.000374262
48.21 0.0105138
48.245 0.0207953
48.28 0.0276586
48.315 -0.0224739
48.35 0.015658
48.385 0.039234
48.42 0.0149147
48.455 0.0327622
48.49 0.0299793
48.525 0.0371776
48.56 0.0716807
48.595 0.0892537
48.63 0.142694
48.665 0.239997
48.7 0.296336
48.735 0.435496
48.77 0.544783
48.805 0.567271
48.84 0.635209
48.875 0.605549
48.91 0.572857
48.945 0.484417
48.98 0.396481
49.015 0.250614
49.05 0.184804
49.085 0.130328
49.12 0.0681853
49.155 0.0560179
49.19 0.0118785
49.225 0.00532963
49.26 0.0065155
49.295 -0.027384
49.33 -0.0133528
49.365 -0.024511
49.4 0.0191858
49.435 -0.0111036
49.47 -0.0162345
49.505 0.0132124
49.54 0.00790388
49.575 -0.000128264
49.61 0.0076371
49.645 -0.00598427
49.68 -0.0149111
49.715 0.00841547
49.75 0.0150482
49.785 0.0245068
49.82 0.00162124
49.855 0.0119661
49.89 0.0276236
49.925 0.0171308
49.96 0.014244
49.995 -0.011272
50.03 -0.0075155
50.065 0.0188847
50.1 0.0350531
50.135 0.00258359
50.17 0.0110224
50.205 -0.0247595
50.24 -0.0122284
50.275 0.00840058
50.31 0.0364973
50.345 -0.0162653
50.38 0.00405194
50.415 0.00361556
50.45 0.00412516
50.485 -0.0287592
50.52 0.000404423
50.555 0.00822828
50.59 0.0114454
50.625 0.0026691
50.66 0.0209313
50.695 0.00258426
50.73 0.0197877
50.765 0.00860132
50.8 0.028759
50.835 0.00328742
50.87 -0.0232894
50.905 0.00210528
50.94 -0.00249809
50.975 0.0288106
51.01 0.0204164
51.045 -0.0095999
51.08 -0.00331375
51.115 0.00357588
51.15 0.00582226
51.185 0.0192654
51.22 0.00698165
51.255 0.0290573
51.29 0.0380889
51.325 -0.001831
51.36 0.0248992
51.395 -0.0110361
51.43 -0.00410369
51.465 -0.00316906
51.5 0.00443115
51.535 0.0361864
51.57 -0.028301
51.605 0.0275614
51.64 0.00822116
51.675 -0.00663675
51.71 0.0242558
51.745 0.011331
51.78 -0.00937047
51.815 -6.42799e-05
51.85 -0.000195783
51.885 0.00029174
51.92 0.0275561
51.955 0.0127949
51.99 0.00955017
52.025 0.00542205
52.06 0.0214665
52.095 0.00836775
52.13 -0.00520713
52.165 0.0285543
52.2 0.0285188
52.235 -0.0112824
52.27 0.0105224
52.305 0.0160705
52.34 -0.0266652
52.375 0.0084042
52.41 0.0222429
52.445 0.0186312
52.48 0.00829891
52.515 0.0185918
52.55 0.0257738
52.585 0.0460102
52.62 0.0346221
52.655 0.00239094
52.69 0.0329991
52.725 0.0417509
52.76 0.105239
52.795 0.0952738
52.83 0.191533
52.865 0.267536
52.9 0.39858
52.935 0.558426
52.97 0.733762
53.005 0.796419
53.04 0.851079
53.075 0.894345
53.11 0.866776
53.145 0.800944
53.18 0.750436
53.215 0.594211
53.25 0.437999
53.285 0.356029
53.32 0.250833
53.355 0.193221
53.39 0.0997603
53.425 0.0695821
53.46 0.0189504
53.495 0.0138567
53.53 0.0117028
53.565 0.0203219
53.6 -0.00362031
53.635 -0.00163402
53.67 0.0128947
53.705 0.00748901
53.74 -0.010531
53.775 0.0159566
53.81 -0.00651904
53.845 0.0226424
53.88 0.04517
53.915 0.0174975
53.95 0.0412225
53.985 0.0442597
54.02 0.0579132
54.055 0.0334259
54.09 0.0547425
54.125 0.00149123
54.16 0.0256357
54.195 -0.00898043
54.23 0.0247613
54.265 -0.0116772
54.3 -0.0133909
54.335 -0.0155664
54.37 -0.0204541
54.405 -0.0206083
54.44 -0.00400683
54.475 -0.00837757
54.51 -0.00957438
54.545 0.00519912
54.58 0.0331069
54.615 0.0330628
54.65 0.00644005
54.685 0.00476469
54.72 -0.0112538
54.755 0.000229101
54.79 0.00998199
54.825 0.00956697
54.86 -0.0196573
54.895 0.00155548
54.93 0.00248336
54.965 0.0214619
55 0.0209438
55.035 0.00604483
55.07 -0.0066408
55.105 -0.00761655
55.14 -0.00246683
55.175 -0.00845803
55.21 0.0115761
55.245 -0.000199995
55.28 -0.0237517
55.315 0.00314378
55.35 0.00313234
55.385 -0.0241679
55.42 0.00475448
55.455 -0.0178338
55.49 0.00434626
55.525 0.0246482
55.56 0.0154346
55.595 0.0366053
55.63 0.0209429
55.665 -0.00520418
55.7 -0.00425686
55.735 0.0236179
55.77 0.0236565
55.805 0.0552084
55.84 0.0441155
55.875 0.0608657
55.91 0.0848298
55.945 0.114407
55.98 0.149948
56.015 0.279365
56.05 0.39042
56.085 0.576554
56.12 0.846617
56.155 0.976523
56.19 1.17502
56.225 1.30332
56.26 1.34052
56.295 1.35884
56.33 1.21612
56.365 1.14789
56.4 0.972724
56.435 0.851161
56.47 0.643453
56.505 0.527679
56.54 0.391957
56.575 0.253489
56.61 0.169963
56.645 0.118954
56.68 0.0785328
56.715 0.0891978
56.75 0.0170831
56.785 0.0394504
56.82 0.0215023
56.855 0.0104342
56.89 -0.0166142
56.925 0.0180124
56.96 -0.00103255
56.995 -0.0117801
57.03 0.00349925
57.065 0.0116237
57.1 0.00644089
57.135 0.0410466
57.17 -0.0210148
57.205 -0.0102768
57.24 0.0186086
57.275 0.00871128
57.31 0.00329255
57.345 -0.00124074
57.38 0.0283185
57.415 -0.0089533
57.45 -0.00321069
57.485 0.01316
57.52 0.0318013
57.555 -0.0260719
57.59 0.00126203
57.625 0.0370763
57.66 0.00979113
57.695 0.0198908
57.73 0.00558901
57.765 -0.000866058
57.8 0.0238884
57.835 -0.0102771
57.87 0.0282716
57.905 0.00195332
57.94 -0.00669487
57.975 0.00400085
58.01 -0.0229592
58.045 -0.0104456
58.08 -0.0249822
58.115 0.0264896
58.15 -0.00128937
58.185 -0.00986465
58.22 -0.0121586
58.255 -0.00933666
58.29 -0.00588784
58.325 0.0194839
58.36 0.0170737
58.395 -0.00738368
58.43 0.0364762
58.465 0.00634594
58.5 0.00726611
58.535 0.00981143
58.57 0.00195478
58.605 0.0288645
58.64 0.00720208
58.675 -0.00902499
58.71 0.00359765
58.745 0.00607015
58.78 -0.0112097
58.815 0.000813504
58.85 -0.0252354
58.885 0.0222629
58.92 0.0346254
58.955 0.0443312
58.99 0.0373677
59.025 0.0256266
59.06 0.0237295
59.095 0.0140145
59.13 0.00679483
59.165 0.0485206
59.2 0.0130581
59.235 0.00200232
59.27 0.0566082
59.305 -0.00459151
59.34 0.0145103
59.375 0.0298663
59.41 0.0445161
59.445 0.0399207
59.48 -0.0123411
59.515 0.0158772
59.55 -0.00198792
59.585 -0.00813926
59.62 0.0221109
59.655 0.0149931
59.69 -0.00467554
59.725 -0.00432493
59.76 0.0150852
59.795 0.00318494
59.83 0.0308485
59.865 0.0372908
59.9 -0.0245666
59.935 0.0482459
59.97 -0.0136371
60.005 -0.00573947
60.04 -0.00273482
60.075 0.00979969
60.11 0.00877823
60.145 0.0510469
60.18 0.0150505
60.215 0.02002
60.25 0.0464622
60.285 -0.0122568
60.32 -0.000161654
60.355 -0.0083358
60.39 0.0706485
60.425 0.0139167
60.46 0.0193932
60.495 0.0209791
60.53 -0.00400951
60.565 0.0481322
60.6 -0.00990997
60.635 -0.00702539
60.67 0.0261503
60.705 0.0312026
60.74 0.0204462
60.775 -0.0158573
60.81 0.0220115
60.845 0.0123756
60.88 0.027678
60.915 0.00929395
60.95 0.030545
60.985 0.0108762
61.02 -0.00608898
61.055 0.0238462
61.09 0.00150642
61.125 -0.00218346
61.16 0.0232502
61.195 0.0104331
61.23 0.0121105
61.265 0.0425395
61.3 0.010247
61.335 0.0104811
61.37 0.0365113
61.405 0.0299248
61.44 0.0240179
61.475 0.0705036
61.51 0.0986599
61.545 0.130123
61.58 0.204877
61.615 0.194677
61.65 0.243048
61.685 0.279714
61.72 0.273432
61.755 0.264897
61.79 0.274404
61.825 0.291905
61.86 0.225041
61.895 0.190838
61.93 0.16815
61.965 0.160887
62 0.113027
62.035 0.131436
62.07 0.0841632
62.105 0.0368592
62.14 0.047215
62.175 0.0409392
62.21 0.0565153
62.245 -0.00443384
62.28 0.000128902
62.315 0.0309505
62.35 0.0369971
62.385 0.031448
62.42 0.0491255
62.455 0.0307716
62.49 0.0478696
62.525 0.125963
62.56 0.200419
62.595 0.268876
62.63 0.369116
62.665 0.475893
62.7 0.591741
62.735 0.696444
62.77 0.775739
62.805 0.881974
62.84 0.90655
62.875 0.91298
62.91 0.863418
62.945 0.797984
62.98 0.662435
63.015 0.616034
63.05 0.454815
63.085 0.384706
63.12 0.30009
63.155 0.213039
63.19 0.161183
63.225 0.136019
63.26 0.0878231
63.295 0.0504304
63.33 0.070776
63.365 0.0160474
63.4 0.0304416
63.435 0.0101583
63.47 0.0414923
63.505 0.0241952
63.54 -0.00131913
63.575 0.0292013
63.61 -0.00381713
63.645 0.0326684
63.68 0.0263298
63.715 0.0064403
63.75 0.0155285
63.785 0.0360008
63.82 -0.00142353
63.855 0.0111453
63.89 0.00154546
63.925 0.00167583
63.96 0.0356405
63.995 -0.00775465
64.03 0.022134
64.065 0.0277712
64.1 0.0224098
64.135 0.0363726
64.17 -0.00428126
64.205 0.0181445
64.24 0.0117632
64.275 -0.0127338
64.31 -0.00461229
64.345 -0.0082982
64.38 0.0408389
64.415 0.0155402
64.45 0.0413248
64.485 0.00215171
64.52 -0.000859222
64.555 0.000115355
64.59 0.00181921
64.625 0.00285774
64.66 0.0228139
64.695 0.0243174
64.73 0.0527743
64.765 0.0235828
64.8 0.0219811
64.835 0.0140066
64.87 0.0186466
64.905 -0.00851468
64.94 0.0186609
64.975 0.0226039
65.01 0.0172431
65.045 0.0167116
65.08 0.0165929
65.115 0.0438613
65.15 0.00503336
65.185 0.0031152
65.22 0.0231595
65.255 0.00614416
65.29 0.0122394
65.325 -0.0102154
65.36 0.0188884
65.395 -0.00849464
65.43 0.0121973
65.465 0.0415539
65.5 0.00687345
65.535 0.00185136
65.57 0.0268289
65.605 0.0280542
65.64 0.0221095
65.675 -0.0227737
65.71 0.024685
65.745 -0.0102019
65.78 0.049169
65.815 -0.00202938
65.85 0.051192
65.885 -0.000306926
65.92 -0.00190931
65.955 0.0278039
65.99 0.0263211
66.025 0.019895
66.06 0.0184871
66.095 0.0194407
66.13 -0.0226876
66.165 -0.00334279
66.2 -0.00308413
66.235 0.0210729
66.27 0.0208875
66.305 0.0229144
66.34 0.0353674
66.375 0.0573875
66.41 0.0493667
66.445 0.0688919
66.48 0.0959577
66.515 0.16367
66.55 0.202972
66.585 0.278031
66.62 0.298984
66.655 0.387463
66.69 0.336405
66.725 0.36583
66.76 0.378693
66.795 0.372684
66.83 0.361279
66.865 0.305649
66.9 0.249957
66.935 0.21096
66.97 0.220092
67.005 0.130541
67.04 0.114224
67.075 0.0855146
67.11 0.0676361
67.145 0.0731933
67.18 0.0664571
67.215 0.011834
67.25 -0.00599219
67.285 0.0225662
67.32 -0.00160196
67.355 0.011327
67.39 0.00772531
67.425 0.019809
67.46 -0.00393545
67.495 -0.0203922
67.53 -0.0114514
67.565 0.00766401
67.6 0.0049562
67.635 0.0119265
67.67 0.0104301
67.705 0.0441927
67.74 0.0192989
67.775 0.000654776
67.81 -0.0220941
67.845 0.0255921
67.88 0.00539822
67.915 0.0471113
67.95 0.0303168
67.985 0.00868705
68.02 0.049019
68.055 0.0342907
68.09 0.0555329
68.125 0.0499941
68.16 0.0668542
68.195 0.0801541
68.23 0.0591113
68.265 0.061087
68.3 0.076715
68.335 0.10432
68.37 0.0665997
68.405 0.0406113
68.44 0.0498461
68.475 0.048083
68.51 0.0352628
68.545 0.0414073
68.58 -0.0129202
68.615 0.0133926
68.65 0.0208544
68.685 0.0289244
68.72 -0.0119848
68.755 0.00570884
68.79 -0.0218009
68.825 0.0079897
68.86 0.0428384
68.895 0.0116851
68.93 0.00902182
68.965 0.00915706
69 0.0185737
69.035 0.0178326
69.07 0.00868152
69.105 -0.0163155
69.14 0.0186422
69.175 0.00444883
69.21 -0.00590018
69.245 -0.00286345
69.28 0.0202911
69.315 0.021975
69.35 0.0404619
69.385 0.00417535
69.42 -0.00976895
69.455 -3.19659e-05
69.49 -0.0182463
69.525 0.0230772
69.56 0.0345015
69.595 0.0067728
69.63 0.00870199
69.665 0.00130455
69.7 0.00890109
69.735 0.0394136
69.77 0.0389931
69.805 0.0142867
69.84 0.0139942
69.875 0.0243273
69.91 0.0160774
69.945 0.022387
69.98 0.00352269
70.015 0.00434818
70.05 0.0174391
70.085 0.0227241
70.12 0.021891
70.155 0.0566604
70.19 0.000803681
70.225 0.0271838
70.26 -0.00601624
70.295 0.0126967
70.33 -0.0199432
70.365 0.0218399
70.4 0.0217042
70.435 0.0375543
70.47 0.0179172
70.505 0.0261279
70.54 0.0170187
70.575 0.00639473
70.61 0.0155163
70.645 -3.86247e-05
70.68 0.0177987
70.715 0.0348461
70.75 0.018376
70.785 0.0332247
70.82 0.0125261
70.855 0.0106178
70.89 0.0108863
70.925 0.00745284
70.96 0.0255718
70.995 0.0230587
71.03 0.0331315
71.065 -0.000574174
71.1 0.00704309
71.135 0.0207142
71.17 0.00854325
71.205 0.0120004
71.24 0.00198806
71.275 -0.0154516
71.31 0.0329278
71.345 0.0279973
71.38 0.00673567
71.415 0.0126885
71.45 0.0235124
71.485 0.0468989
71.52 0.00249491
71.555 0.0139014
71.59 0.0103242
71.625 -0.0186938
71.66 -0.0151186
71.695 0.0189922
71.73 0.018973
71.765 0.00856172
71.8 0.0117626
71.835 0.0123608
71.87 0.0442231
71.905 0.00363065
71.94 0.00588449
71.975 0.00299784
72.01 -0.00347786
72.045 0.0161762
72.08 -0.00966976
72.115 0.041917
72.15 0.00554335
72.185 0.0239046
72.22 -0.0115323
72.255 0.045021
72.29 0.00800516
72.325 0.0141504
72.36 -0.000987268
72.395 0.0111363
72.43 -0.0146435
72.465 0.0048196
72.5 0.0156111
72.535 -0.00588418
72.57 0.0142682
72.605 0.00441072
72.64 -0.00335959
72.675 -0.00116288
72.71 0.0466679
72.745 0.0627217
72.78 0.0793346
72.815 0.118055
72.85 0.126194
72.885 0.164614
72.92 0.178205
72.955 0.220674
72.99 0.253425
73.025 0.200144
73.06 0.205607
73.095 0.17164
73.13 0.194342
73.165 0.171051
73.2 0.163628
73.235 0.122225
73.27 0.133297
73.305 0.0894062
73.34 0.0803759
73.375 0.0652768
73.41 0.0460905
73.445 0.0345397
73.48 0.0263597
73.515 0.00375355
73.55 0.0194789
73.585 0.0501832
73.62 0.00178568
73.655 0.0218041
73.69 -0.00451622
73.725 0.012227
73.76 0.0292025
73.795 0.0137685
73.83 0.0350126
73.865 0.00795195
73.9 0.0106028
73.935 0.0158529
73.97 0.0104488
74.005 0.0258346
74.04 0.0172841
74.075 0.0197637
74.11 0.0212995
74.145 0.0211361
74.18 0.000854046
74.215 -0.00434847
74.25 0.0142174
74.285 -0.0141619
74.32 -0.00465629
74.355 0.00565473
74.39 0.0102897
74.425 -0.00631995
74.46 -0.00542894
74.495 0.0163842
74.53 -0.00313254
74.565 0.0161024
74.585 -0.0208044