File: data/xrd/xy/2019-05-23TO2_12_25.720560+00_00_LBL_B5.xy
'Id: "" Comment: "Integrate frame 06062019_neo_Pentyl_05_002.gfrmwith cursor Wedge Cursor #2" Operator: "UC Berkeley" Anode: "Co" Scantype: "TwoTheta" TimePerStep: "600"
14.29 -0.0256896
14.325 -0.0102957
14.36 0.0180541
14.395 -0.00583382
14.43 0.0163837
14.465 -0.0140132
14.5 0.025682
14.535 -0.0159259
14.57 0.0101257
14.605 -0.00153477
14.64 0.015209
14.675 0.0135945
14.71 -0.024581
14.745 0.0455977
14.78 0.0205133
14.815 0.00124083
14.85 0.0187897
14.885 -0.0168778
14.92 0.00965642
14.955 0.00744034
14.99 0.0132215
15.025 -0.0069194
15.06 0.00305532
15.095 0.0373487
15.13 0.0104118
15.165 0.0118545
15.2 -0.00284451
15.235 0.014225
15.27 0.0380692
15.305 0.024095
15.34 0.0276932
15.375 0.0101642
15.41 0.0300924
15.445 -0.000896694
15.48 0.0127187
15.515 0.0117793
15.55 0.019718
15.585 -0.0141995
15.62 0.001166
15.655 0.0305783
15.69 -0.0244118
15.725 0.0343194
15.76 0.0264691
15.795 0.0252516
15.83 0.0335362
15.865 -0.0086594
15.9 0.0255425
15.935 0.0140957
15.97 0.0386572
16.005 0.0292972
16.04 0.0219299
16.075 0.0227513
16.11 0.0387561
16.145 0.0139534
16.18 -0.00959866
16.215 0.0287761
16.25 0.0247128
16.285 0.0495421
16.32 0.0107283
16.355 0.0312929
16.39 0.0106003
16.425 -0.0233319
16.46 0.0238818
16.495 0.0266454
16.53 0.0218049
16.565 0.0516642
16.6 -0.00173815
16.635 0.0370611
16.67 -0.000974195
16.705 0.0304087
16.74 0.0254938
16.775 0.0263917
16.81 0.0444542
16.845 0.0312326
16.88 0.0354363
16.915 0.0114192
16.95 0.0392771
16.985 0.0267238
17.02 0.00361108
17.055 0.0177496
17.09 0.0595011
17.125 -0.00638125
17.16 -0.002863
17.195 0.0302179
17.23 -0.0112124
17.265 0.0231302
17.3 0.0347678
17.335 0.0393753
17.37 0.024918
17.405 0.013197
17.44 0.00721427
17.475 0.0353201
17.51 0.0132111
17.545 0.0304046
17.58 0.0257541
17.615 0.0307586
17.65 0.0312829
17.685 -0.0131687
17.72 -0.0108562
17.755 0.0608079
17.79 0.0089931
17.825 0.0113004
17.86 0.0151093
17.895 0.0453612
17.93 0.00679827
17.965 -0.0100451
18 0.024989
18.035 0.00736221
18.07 0.000954891
18.105 0.0305842
18.14 0.0216427
18.175 0.0178938
18.21 0.0128734
18.245 0.0185659
18.28 0.0132634
18.315 -0.0125262
18.35 0.0241575
18.385 -0.00551392
18.42 0.0113202
18.455 0.0312497
18.49 0.0679601
18.525 0.0122951
18.56 0.0345271
18.595 0.0213828
18.63 0.0225426
18.665 -0.00731633
18.7 0.0053909
18.735 0.00999475
18.77 0.014881
18.805 0.0196318
18.84 0.0365784
18.875 0.0363355
18.91 0.00956579
18.945 0.0186518
18.98 0.0105357
19.015 0.0126963
19.05 0.00108086
19.085 0.0181754
19.12 0.0174588
19.155 0.0144421
19.19 -0.0107575
19.225 0.00121973
19.26 0.028766
19.295 0.0329303
19.33 0.0220317
19.365 0.00729492
19.4 0.0171717
19.435 -0.0158173
19.47 0.0115863
19.505 0.0242096
19.54 0.0215374
19.575 0.0414392
19.61 0.0216175
19.645 0.00423943
19.68 0.0224679
19.715 0.0180266
19.75 0.0180773
19.785 -0.0150472
19.82 -0.00843621
19.855 -0.00222558
19.89 -0.0174068
19.925 0.0452147
19.96 -0.00591353
19.995 0.0104816
20.03 -0.0147794
20.065 -0.00352222
20.1 0.0256589
20.135 0.0135549
20.17 -0.00235691
20.205 0.0529017
20.24 0.000730628
20.275 -0.00205481
20.31 0.00907783
20.345 0.0212876
20.38 0.0142655
20.415 0.0101864
20.45 0.00493748
20.485 0.00600538
20.52 0.0159222
20.555 0.00113783
20.59 0.00725056
20.625 -0.00781493
20.66 0.0101609
20.695 0.00245543
20.73 0.0124215
20.765 0.00856933
20.8 -0.011678
20.835 0.0052335
20.87 -0.0155889
20.905 -0.0240732
20.94 0.00404136
20.975 0.0280431
21.01 -0.00765458
21.045 0.0217471
21.08 0.015217
21.115 0.0153098
21.15 0.0231572
21.185 0.0224161
21.22 0.0230933
21.255 0.0330825
21.29 0.0105347
21.325 0.0212329
21.36 -0.0185685
21.395 0.0324344
21.43 0.0078473
21.465 -0.00754154
21.5 0.00139952
21.535 0.0178711
21.57 0.0241384
21.605 0.0326837
21.64 0.0490555
21.675 -0.0107559
21.71 0.0235679
21.745 0.0368524
21.78 0.0191802
21.815 0.00610808
21.85 -0.00509205
21.885 -0.00411527
21.92 0.00818863
21.955 0.0297694
21.99 0.0200146
22.025 0.00737692
22.06 0.0335889
22.095 0.0340193
22.13 0.0655024
22.165 0.0645977
22.2 0.0938796
22.235 0.0909465
22.27 0.0994039
22.305 0.107495
22.34 0.104243
22.375 0.0935493
22.41 0.15878
22.445 0.168359
22.48 0.217768
22.515 0.205099
22.55 0.145618
22.585 0.0781622
22.62 0.0486245
22.655 0.0493436
22.69 0.0604181
22.725 0.0350231
22.76 0.0382798
22.795 0.060809
22.83 0.0453741
22.865 0.0662077
22.9 0.0757189
22.935 0.113039
22.97 0.104022
23.005 0.0881074
23.04 0.0715994
23.075 0.072354
23.11 0.0717788
23.145 0.00794961
23.18 0.0295303
23.215 -0.0236723
23.25 1.24568e-06
23.285 0.0164319
23.32 0.0594991
23.355 0.0226874
23.39 0.0216395
23.425 0.0121978
23.46 0.0197484
23.495 -0.00224353
23.53 0.00046926
23.565 -0.000967907
23.6 0.0121326
23.635 0.00869946
23.67 0.012786
23.705 0.00243517
23.74 0.0356745
23.775 0.0193807
23.81 0.0263622
23.845 0.0406002
23.88 0.0400159
23.915 0.0445768
23.95 0.0155981
23.985 0.0347703
24.02 0.0458873
24.055 0.0915522
24.09 0.114297
24.125 0.0914376
24.16 0.155554
24.195 0.152571
24.23 0.110288
24.265 0.118042
24.3 0.0718291
24.335 0.0413375
24.37 0.0230121
24.405 0.0104241
24.44 0.00821405
24.475 0.0129747
24.51 0.0105519
24.545 0.027937
24.58 0.0343747
24.615 0.0265238
24.65 0.0313415
24.685 0.0121434
24.72 0.00929436
24.755 0.0300038
24.79 -0.00519402
24.825 0.0452897
24.86 0.0175737
24.895 0.0377118
24.93 0.0540935
24.965 0.0189697
25 0.0431232
25.035 0.0517628
25.07 0.00409384
25.105 0.0197855
25.14 0.0193896
25.175 0.0534598
25.21 0.0311915
25.245 0.0297512
25.28 -0.00291726
25.315 0.000733435
25.35 -0.00982151
25.385 -0.00975959
25.42 -0.0174348
25.455 -0.0110045
25.49 0.0128337
25.525 0.0236025
25.56 0.0372194
25.595 0.0153392
25.63 0.0273526
25.665 0.0315454
25.7 0.0418275
25.735 0.0266927
25.77 0.0296483
25.805 0.0336517
25.84 0.029301
25.875 0.0152807
25.91 -0.00970561
25.945 0.0280827
25.98 0.0197598
26.015 0.0134366
26.05 0.044371
26.085 0.0509101
26.12 0.0657336
26.155 0.0621628
26.19 0.0601956
26.225 0.0572846
26.26 -0.00217034
26.295 0.00695385
26.33 -8.48373e-05
26.365 0.0202844
26.4 0.0127983
26.435 0.00689891
26.47 -0.0180162
26.505 0.0095772
26.54 0.0102658
26.575 -0.0121369
26.61 0.00712859
26.645 0.0012233
26.68 0.0167812
26.715 0.00563418
26.75 0.0272741
26.785 0.00501062
26.82 0.00192599
26.855 -0.0155464
26.89 0.00338796
26.925 0.000976843
26.96 -0.0177572
26.995 0.00877919
27.03 -0.0229163
27.065 0.0323518
27.1 0.0183333
27.135 0.0681189
27.17 0.111888
27.205 0.122114
27.24 0.0575027
27.275 0.117823
27.31 0.113535
27.345 0.123425
27.38 0.125341
27.415 0.127042
27.45 0.139754
27.485 0.118896
27.52 0.080605
27.555 0.0848543
27.59 0.0556861
27.625 0.0485802
27.66 0.0564939
27.695 0.0632602
27.73 0.0521442
27.765 0.0334591
27.8 0.0421007
27.835 0.00913529
27.87 0.000693719
27.905 0.0131529
27.94 0.0180832
27.975 0.00274806
28.01 0.0394714
28.045 0.0350796
28.08 0.0353171
28.115 0.0561585
28.15 0.103539
28.185 0.0840162
28.22 0.0952938
28.255 0.108376
28.29 0.112792
28.325 0.0817492
28.36 0.0191141
28.395 0.0465096
28.43 0.0515889
28.465 0.0557172
28.5 0.086363
28.535 0.0818833
28.57 0.0942914
28.605 0.0934628
28.64 0.123198
28.675 0.118232
28.71 0.108046
28.745 0.0815984
28.78 0.0320691
28.815 0.0464741
28.85 -0.0012198
28.885 0.00169256
28.92 0.014447
28.955 -0.00997555
28.99 0.00656211
29.025 0.0156418
29.06 0.0303431
29.095 0.0200298
29.13 0.0104018
29.165 0.0080139
29.2 -0.000593824
29.235 0.0230527
29.27 0.0122947
29.305 0.010761
29.34 -0.0019875
29.375 0.0075509
29.41 0.00602417
29.445 0.032033
29.48 0.0299909
29.515 0.0478637
29.55 0.0777888
29.585 0.076701
29.62 0.0613827
29.655 0.0770454
29.69 0.0801852
29.725 0.094068
29.76 0.0814124
29.795 0.169615
29.83 0.23492
29.865 0.334881
29.9 0.505006
29.935 0.80409
29.97 1.20059
30.005 1.69129
30.04 2.13836
30.075 2.52028
30.11 2.33212
30.145 2.0869
30.18 1.51158
30.215 1.21834
30.25 1.03168
30.285 0.934924
30.32 0.813681
30.355 0.634309
30.39 0.458562
30.425 0.284922
30.46 0.16644
30.495 0.0572537
30.53 0.0256643
30.565 -0.00786508
30.6 -0.00672471
30.635 -0.0131754
30.67 0.00879299
30.705 -0.0109977
30.74 0.0099415
30.775 0.0147029
30.81 0.0214152
30.845 0.0458247
30.88 0.0764594
30.915 0.132753
30.95 0.150705
30.985 0.16854
31.02 0.160253
31.055 0.137253
31.09 0.0667426
31.125 0.0477965
31.16 0.0378432
31.195 -0.00102998
31.23 0.00951575
31.265 0.0195542
31.3 0.0291413
31.335 0.0464871
31.37 0.0334391
31.405 0.0827733
31.44 0.0807276
31.475 0.070669
31.51 0.054155
31.545 0.0560118
31.58 0.00432478
31.615 -0.0106557
31.65 0.0136215
31.685 0.0215183
31.72 0.0204632
31.755 0.0585106
31.79 0.0911093
31.825 0.119138
31.86 0.153823
31.895 0.11742
31.93 0.137973
31.965 0.0959402
32 0.0560827
32.035 0.0226953
32.07 0.00889132
32.105 -0.00687256
32.14 0.0429651
32.175 0.0499489
32.21 0.106566
32.245 0.175054
32.28 0.264787
32.315 0.381871
32.35 0.509555
32.385 0.645501
32.42 0.749082
32.455 0.784558
32.49 0.721617
32.525 0.557413
32.56 0.403218
32.595 0.290979
32.63 0.257756
32.665 0.241956
32.7 0.268738
32.735 0.254981
32.77 0.286503
32.805 0.257885
32.84 0.282828
32.875 0.262709
32.91 0.255117
32.945 0.257841
32.98 0.214231
33.015 0.191896
33.05 0.169316
33.085 0.163369
33.12 0.18223
33.155 0.122946
33.19 0.0758174
33.225 0.0591737
33.26 0.0134238
33.295 -0.00288601
33.33 -0.000203915
33.365 -0.00642407
33.4 0.018073
33.435 0.0628056
33.47 0.110145
33.505 0.157689
33.54 0.196414
33.575 0.252004
33.61 0.226172
33.645 0.208156
33.68 0.16725
33.715 0.121555
33.75 0.112612
33.785 0.100447
33.82 0.125392
33.855 0.163162
33.89 0.171939
33.925 0.16845
33.96 0.138554
33.995 0.13571
34.03 0.131004
34.065 0.163853
34.1 0.186315
34.135 0.185917
34.17 0.167555
34.205 0.140165
34.24 0.107007
34.275 0.0863803
34.31 0.111198
34.345 0.161647
34.38 0.237937
34.415 0.327278
34.45 0.355943
34.485 0.348737
34.52 0.282631
34.555 0.181898
34.59 0.101711
34.625 0.046474
34.66 0.0105089
34.695 -0.0155661
34.73 -0.00586262
34.765 -0.0122266
34.8 -0.00133893
34.835 0.0120886
34.87 0.0540779
34.905 0.0919823
34.94 0.155198
34.975 0.187852
35.01 0.209611
35.045 0.239
35.08 0.234994
35.115 0.214134
35.15 0.170624
35.185 0.0995577
35.22 0.0691114
35.255 0.0323368
35.29 0.0312983
35.325 0.0123983
35.36 0.00297488
35.395 -0.00700653
35.43 0.00103054
35.465 0.00308985
35.5 -0.00319122
35.535 0.0181046
35.57 0.0196961
35.605 0.0177258
35.64 0.02541
35.675 0.0266854
35.71 0.0705585
35.745 0.10335
35.78 0.115809
35.815 0.121382
35.85 0.14505
35.885 0.173865
35.92 0.172409
35.955 0.193928
35.99 0.212711
36.025 0.232224
36.06 0.245023
36.095 0.242955
36.13 0.263203
36.165 0.218179
36.2 0.177161
36.235 0.137945
36.27 0.0796751
36.305 0.0527277
36.34 0.0154542
36.375 0.0113042
36.41 -0.00503374
36.445 -0.00785223
36.48 -0.0171417
36.515 -0.00230376
36.55 -0.0213584
36.585 0.00556455
36.62 0.00326359
36.655 0.00663611
36.69 0.0156111
36.725 0.0553748
36.76 0.103154
36.795 0.20151
36.83 0.290452
36.865 0.391186
36.9 0.420566
36.935 0.397168
36.97 0.336828
37.005 0.289442
37.04 0.170244
37.075 0.126381
37.11 0.0713233
37.145 0.013379
37.18 0.0180655
37.215 0.0255459
37.25 0.0265148
37.285 0.0324917
37.32 0.0121214
37.355 0.0330731
37.39 0.0364733
37.425 0.0388967
37.46 0.0382724
37.495 0.0717789
37.53 0.0984296
37.565 0.134493
37.6 0.182085
37.635 0.236967
37.67 0.303631
37.705 0.376008
37.74 0.466091
37.775 0.526383
37.81 0.59458
37.845 0.574174
37.88 0.546251
37.915 0.432173
37.95 0.326214
37.985 0.273881
38.02 0.199252
38.055 0.129579
38.09 0.10052
38.125 0.0803734
38.16 0.0802592
38.195 0.0421343
38.23 0.0350423
38.265 -0.00114368
38.3 0.0062515
38.335 0.0148725
38.37 0.0150403
38.405 0.0106546
38.44 0.0281906
38.475 0.0428913
38.51 0.0354039
38.545 0.0405191
38.58 0.0419213
38.615 0.0395729
38.65 0.0282337
38.685 0.033928
38.72 0.0400383
38.755 0.024248
38.79 0.0235282
38.825 0.0343719
38.86 0.0486303
38.895 0.0108521
38.93 0.0206246
38.965 0.015265
39 -0.00312485
39.035 0.00883333
39.07 0.000171308
39.105 -0.0200889
39.14 0.00287088
39.175 -0.00216743
39.21 0.0271497
39.245 0.0384882
39.28 0.0521978
39.315 0.067307
39.35 0.0640882
39.385 0.0733326
39.42 0.0521444
39.455 0.0534023
39.49 0.0373923
39.525 0.0392614
39.56 0.0552277
39.595 0.0501512
39.63 0.0465729
39.665 0.0484539
39.7 0.0636571
39.735 0.08647
39.77 0.125935
39.805 0.148717
39.84 0.174235
39.875 0.201008
39.91 0.210449
39.945 0.196639
39.98 0.181857
40.015 0.127935
40.05 0.0946552
40.085 0.0706268
40.12 0.0434537
40.155 0.0494276
40.19 0.0157239
40.225 0.026701
40.26 0.0456313
40.295 0.0470041
40.33 0.0700862
40.365 0.0930492
40.4 0.0896781
40.435 0.10932
40.47 0.0904153
40.505 0.0774065
40.54 0.071226
40.575 0.0637209
40.61 0.0412279
40.645 0.0524106
40.68 0.0285786
40.715 0.0195577
40.75 0.0554727
40.785 0.0599192
40.82 0.103568
40.855 0.143825
40.89 0.162873
40.925 0.19175
40.96 0.179362
40.995 0.164479
41.03 0.128612
41.065 0.109255
41.1 0.0743235
41.135 0.0685467
41.17 0.0524478
41.205 0.100385
41.24 0.15287
41.275 0.196545
41.31 0.168908
41.345 0.11243
41.38 0.0780867
41.415 0.0416613
41.45 0.0258716
41.485 0.00276009
41.52 0.0238033
41.555 0.0443556
41.59 0.0623423
41.625 0.102356
41.66 0.116221
41.695 0.117339
41.73 0.112586
41.765 0.123983
41.8 0.132251
41.835 0.0932263
41.87 0.068257
41.905 0.0274825
41.94 0.0276581
41.975 0.0100196
42.01 0.00880197
42.045 0.00703977
42.08 0.0133047
42.115 0.0092578
42.15 0.0171541
42.185 0.000381651
42.22 -0.00400279
42.255 -0.00100008
42.29 -0.0146342
42.325 -0.0049767
42.36 -0.0115769
42.395 0.00296874
42.43 -0.0169654
42.465 -0.00347265
42.5 -0.00581795
42.535 0.00578029
42.57 0.0205276
42.605 0.0141381
42.64 0.0348389
42.675 0.0476132
42.71 0.0669024
42.745 0.0506047
42.78 0.0523169
42.815 0.0509204
42.85 0.0460745
42.885 0.0713749
42.92 0.0443276
42.955 0.062519
42.99 0.0449995
43.025 0.0495972
43.06 0.0583606
43.095 0.0405908
43.13 0.0354424
43.165 0.0318902
43.2 0.0244691
43.235 0.0163807
43.27 0.0154069
43.305 0.0254116
43.34 0.0157989
43.375 -0.0139424
43.41 -0.00349803
43.445 0.00631578
43.48 0.0221706
43.515 0.0300467
43.55 0.00567248
43.585 0.00562467
43.62 0.0142993
43.655 0.031436
43.69 0.0247363
43.725 0.00771103
43.76 0.00237808
43.795 0.00327621
43.83 0.000317195
43.865 0.00569588
43.9 -0.00335461
43.935 0.0384854
43.97 0.0367805
44.005 0.0389925
44.04 0.0727357
44.075 0.0680788
44.11 0.0637333
44.145 0.0590483
44.18 0.0529066
44.215 0.0475798
44.25 0.0257834
44.285 0.0131705
44.32 0.0181334
44.355 0.0143575
44.39 -0.00620088
44.425 -0.000205293
44.46 0.0127101
44.495 0.00546451
44.53 0.0242571
44.565 0.0293571
44.6 0.0702298
44.635 0.101125
44.67 0.104844
44.705 0.135133
44.74 0.142472
44.775 0.139722
44.81 0.121327
44.845 0.140097
44.88 0.168585
44.915 0.20772
44.95 0.242405
44.985 0.261298
45.02 0.271499
45.055 0.272012
45.09 0.247446
45.125 0.220216
45.16 0.174753
45.195 0.140255
45.23 0.0936597
45.265 0.085674
45.3 0.0573555
45.335 0.0381759
45.37 0.0220424
45.405 0.0344089
45.44 0.0261928
45.475 0.0438155
45.51 0.0525732
45.545 0.0890017
45.58 0.128266
45.615 0.185169
45.65 0.164149
45.685 0.186078
45.72 0.178459
45.755 0.176129
45.79 0.139377
45.825 0.133379
45.86 0.0961189
45.895 0.0785177
45.93 0.0357563
45.965 0.0172422
46 0.0254087
46.035 0.00312407
46.07 0.00836519
46.105 0.000438549
46.14 -0.00560053
46.175 -0.00103605
46.21 -0.0111119
46.245 0.0137796
46.28 0.0127124
46.315 0.000593276
46.35 -0.00318732
46.385 -0.00457501
46.42 0.00444369
46.455 -0.0132821
46.49 0.00924399
46.525 0.0109096
46.56 0.0218987
46.595 0.0448801
46.63 0.0291316
46.665 0.0849127
46.7 0.0719069
46.735 0.10371
46.77 0.114439
46.805 0.125988
46.84 0.0999544
46.875 0.106848
46.91 0.100766
46.945 0.107279
46.98 0.117373
47.015 0.103492
47.05 0.105887
47.085 0.0784345
47.12 0.062709
47.155 0.0623738
47.19 0.0488918
47.225 0.0519529
47.26 0.0529862
47.295 0.0488318
47.33 0.0549015
47.365 0.0706967
47.4 0.123584
47.435 0.138451
47.47 0.144559
47.505 0.144202
47.54 0.142542
47.575 0.135701
47.61 0.10764
47.645 0.0989862
47.68 0.109545
47.715 0.0732122
47.75 0.080203
47.785 0.0702115
47.82 0.04899
47.855 0.0459094
47.89 0.0643388
47.925 0.0708853
47.96 0.087668
47.995 0.0830748
48.03 0.0710737
48.065 0.0628422
48.1 0.0441087
48.135 0.0061663
48.17 -0.00918228
48.205 -0.0030103
48.24 -0.00881641
48.275 -0.00764019
48.31 -0.00422988
48.345 -0.00388322
48.38 -0.00634818
48.415 -0.00508387
48.45 0.00921291
48.485 0.00181739
48.52 -0.000290723
48.555 0.00994582
48.59 0.0063426
48.625 0.00970504
48.66 -0.00673199
48.695 -0.0116805
48.73 -0.00466253
48.765 0.00183132
48.8 -0.00815471
48.835 -0.00802829
48.87 -0.00419634
48.905 -0.000811452
48.94 0.00568098
48.975 -0.00057923
49.01 -0.00661793
49.045 -0.00204919
49.08 0.00345945
49.115 0.00214873
49.15 -0.00198059
49.185 -0.00348642
49.22 0.00863198
49.255 0.0207454
49.29 0.021281
49.325 0.0465537
49.36 0.0540102
49.395 0.0501916
49.43 0.0667259
49.465 0.0685869
49.5 0.0698981
49.535 0.0685654
49.57 0.0667479
49.605 0.0483943
49.64 0.0295059
49.675 0.0295651
49.71 0.0254284
49.745 0.00691779
49.78 0.00586897
49.815 0.00525767
49.85 0.00383001
49.885 -0.0106788
49.92 -0.0111731
49.955 -0.00568591
49.99 0.00333175
50.025 0.0127959
50.06 0.00921841
50.095 0.0180171
50.13 0.020012
50.165 0.0324425
50.2 0.0390994
50.235 0.0482623
50.27 0.0565835
50.305 0.0378678
50.34 0.0407028
50.375 0.0506885
50.41 0.04816
50.445 0.0444992
50.48 0.0329763
50.515 0.0252194
50.55 0.0301429
50.585 0.0525244
50.62 0.0571018
50.655 0.0686399
50.69 0.095123
50.725 0.126339
50.76 0.17136
50.795 0.201866
50.83 0.204957
50.865 0.224367
50.9 0.208102
50.935 0.192855
50.97 0.175633
51.005 0.144165
51.04 0.10778
51.075 0.0866206
51.11 0.0655345
51.145 0.0413044
51.18 0.0391337
51.215 0.0208495
51.25 0.0183552
51.285 0.0131927
51.32 0.00620289
51.355 -0.00272155
51.39 0.00144098
51.425 -0.00431518
51.46 -0.000301647
51.495 -0.00711802
51.53 -0.00545938
51.565 0.00448795
51.6 -0.0156856
51.635 -0.00944949
51.67 -0.00687772
51.705 -0.00288164
51.74 -0.000367782
51.775 -0.00585456
51.81 -0.00760226
51.845 -0.0069599
51.88 0.0122696
51.915 0.0104212
51.95 0.00725188
51.985 0.0149921
52.02 0.0159725
52.055 0.0157242
52.09 0.0194665
52.125 0.0276465
52.16 0.0246532
52.195 0.0289246
52.23 0.0267651
52.265 0.0283439
52.3 0.0339305
52.335 0.0452473
52.37 0.0463119
52.405 0.0422051
52.44 0.0278367
52.475 0.0314766
52.51 0.0317806
52.545 0.0287304
52.58 0.0309906
52.615 0.02812
52.65 0.0331591
52.685 0.0240084
52.72 0.0224874
52.755 0.00982851
52.79 0.0114722
52.825 0.0156156
52.86 0.036479
52.895 0.023208
52.93 0.0273876
52.965 0.0283195
53 0.0147666
53.035 0.0326815
53.07 0.0321405
53.105 0.0271223
53.14 0.0370344
53.175 0.0617017
53.21 0.0532842
53.245 0.0722453
53.28 0.0813056
53.315 0.0843647
53.35 0.0785216
53.385 0.0930515
53.42 0.0610527
53.455 0.086553
53.49 0.0614747
53.525 0.0680831
53.56 0.0511137
53.595 0.0515671
53.63 0.0497999
53.665 0.0442727
53.7 0.0413412
53.735 0.0453333
53.77 0.0350789
53.805 0.0230028
53.84 0.0286501
53.875 0.0386033
53.91 0.0312178
53.945 0.0329798
53.98 0.0332612
54.015 0.0366148
54.05 0.0512788
54.085 0.0332033
54.12 0.0393112
54.155 0.0231434
54.19 0.0225326
54.225 0.0252643
54.26 0.0265655
54.295 0.0320518
54.33 0.0261998
54.365 0.0349482
54.4 0.0421319
54.435 0.0257014
54.47 0.018868
54.505 0.0127413
54.54 -0.00101805
54.575 0.00446683
54.61 -0.0146684
54.645 -0.00660594
54.68 -0.0137274
54.715 -0.000720393
54.75 -0.00990359
54.785 -0.0140463
54.82 -0.00548931
54.855 -0.00886509
54.89 -0.00897457
54.925 -0.0115106
54.96 0.00828344
54.995 -0.00559409
55.03 0.00523544
55.065 0.0113285
55.1 0.00799829
55.135 0.0192772
55.17 0.0218234
55.205 0.0165876
55.24 0.0146435
55.275 0.0193967
55.31 0.00914854
55.345 0.00449634
55.38 0.0109995
55.415 0.00481886
55.45 -0.00701235
55.485 0.00926569
55.52 0.00232711
55.555 0.0152959
55.59 0.0115446
55.625 0.0256717
55.66 0.0136602
55.695 0.0223035
55.73 0.0164673
55.765 0.00970756
55.8 0.0194088
55.835 0.0127125
55.87 0.00934835
55.905 0.0132306
55.94 0.0236276
55.975 0.0212541
56.01 0.0195565
56.045 0.0288319
56.08 0.0376519
56.115 0.0525441
56.15 0.0519458
56.185 0.0465749
56.22 0.0557067
56.255 0.0624626
56.29 0.0639877
56.325 0.0586356
56.36 0.0452572
56.395 0.0414595
56.43 0.0421219
56.465 0.0332821
56.5 0.0275646
56.535 0.0260699
56.57 0.0373789
56.605 0.0451907
56.64 0.0624318
56.675 0.0472808
56.71 0.047342
56.745 0.0371007
56.78 0.0329417
56.815 0.0249219
56.85 0.0260959
56.885 0.0142124
56.92 0.0199369
56.955 0.00320064
56.99 0.0138955
57.025 0.006483
57.06 -0.000286209
57.095 0.00491827
57.13 -0.00531481
57.165 0.00358397
57.2 -0.00547233
57.235 -0.006856
57.27 0.0218915
57.305 0.00621418
57.34 0.00537484
57.375 0.0141035
57.41 0.00438644
57.445 0.0207015
57.48 0.00711257
57.515 -0.00640959
57.55 0.00766179
57.585 -0.00691135
57.62 -0.000672508
57.655 0.00497502
57.69 -0.00279639
57.725 -0.00110047
57.76 -0.00566484
57.795 -4.8555e-05
57.83 0.0191946
57.865 0.0237849
57.9 0.0210705
57.935 0.019844
57.97 0.0164552
58.005 0.0331254
58.04 0.0173368
58.075 0.0154255
58.11 0.0207319
58.145 0.0117245
58.18 0.023906
58.215 0.0212512
58.25 0.0374409
58.285 0.0398639
58.32 0.0319906
58.355 0.0438609
58.39 0.0417974
58.425 0.0235334
58.46 0.020016
58.495 0.0250102
58.53 -0.00649822
58.565 0.00490616
58.6 -0.00245751
58.635 -0.00405315
58.67 -0.00313097
58.705 -0.0145277
58.74 0.00194751
58.775 -0.00459722
58.81 -0.00535228
58.845 0.00299721
58.88 -0.00074048
58.915 0.0140832
58.95 0.0118828
58.985 0.0031908
59.02 0.00661542
59.055 0.0261388
59.09 0.0128921
59.125 0.0263951
59.16 0.0327631
59.195 0.0518944
59.23 0.0647408
59.265 0.105511
59.3 0.158174
59.335 0.264226
59.37 0.344611
59.405 0.398479
59.44 0.357264
59.475 0.305373
59.51 0.217436
59.545 0.144175
59.58 0.0954457
59.615 0.0473282
59.65 0.0341559
59.685 0.0305443
59.72 0.00907177
59.755 -0.00309917
59.79 -0.0097028
59.825 -0.00460964
59.86 -0.00849842
59.895 0.00157792
59.93 0.0017768
59.965 -0.000523093
60 -0.00134465
60.035 0.00491616
60.07 -0.000534212
60.105 -0.00241524
60.14 -0.00610281
60.175 0.0019693
60.21 0.0101504
60.245 0.00923831
60.28 -0.0114473
60.315 -0.00288577
60.35 0.0214007
60.385 0.0148334
60.42 0.0137745
60.455 0.00881728
60.49 0.0153727
60.525 -0.00216241
60.56 0.0120323
60.595 0.00204084
60.63 0.0164174
60.665 0.0045532
60.7 0.00940795
60.735 0.0180326
60.77 -0.00250487
60.805 0.0298555
60.84 0.00174786
60.875 0.00795273
60.91 0.0129942
60.945 0.0147668
60.98 0.0121127
61.015 0.0139374
61.05 0.00409288
61.085 0.00611758
61.12 0.00183676
61.155 0.00730719
61.19 0.00436468
61.225 0.0239851
61.26 0.0117483
61.295 0.00450842
61.33 0.00872035
61.365 -0.00597267
61.4 -0.00205186
61.435 -0.00553976
61.47 0.00615912
61.505 0.0156554
61.54 -0.00778487
61.575 -0.000371974
61.61 -0.00120453
61.645 0.0134445
61.68 0.0131538
61.715 -0.00520862
61.75 -0.00280563
61.785 0.00943312
61.82 0.0184924
61.855 0.0273299
61.89 0.00804529
61.925 0.0110266
61.96 0.0266806
61.995 0.0160431
62.03 0.0198393
62.065 0.0275902
62.1 0.0291974
62.135 0.0448357
62.17 0.0402014
62.205 0.0414921
62.24 0.0500488
62.275 0.0474886
62.31 0.0312726
62.345 0.0468461
62.38 0.0442634
62.415 0.0355281
62.45 0.0347057
62.485 0.02778
62.52 0.0279444
62.555 0.0337667
62.59 0.0272673
62.625 0.0250745
62.66 0.017429
62.695 0.0158203
62.73 0.00872719
62.765 0.00627835
62.8 0.00980639
62.835 -0.000884519
62.87 -0.00953531
62.905 -0.00625471
62.94 -0.00684737
62.975 0.00363184
63.01 -0.00601729
63.045 0.00562256
63.08 -0.0024739
63.115 -0.0131146
63.15 -0.00828347
63.185 0.00136479
63.22 0.00467869
63.255 -0.00133885
63.29 -0.0014529
63.325 0.00713779
63.36 0.00330879
63.395 -1.74208e-05
63.43 0.0146193
63.465 -0.00360729
63.5 0.00857007
63.535 0.0044471
63.57 0.0167862
63.605 0.00883733
63.64 0.0106123
63.675 0.0153748
63.71 0.0113474
63.745 0.0173862
63.78 0.0196511
63.815 0.0229165
63.85 0.00982389
63.885 0.0159355
63.92 0.00940192
63.955 0.0118159
63.99 0.00997346
64.025 0.00986603
64.06 0.0137606
64.095 -0.00240813
64.13 0.00851705
64.165 0.0148785
64.2 0.0172977
64.235 0.0160211
64.27 0.00456151
64.305 0.0125979
64.34 0.0105947
64.375 0.0168971
64.41 0.0145087
64.445 0.0187343
64.48 -0.00181671
64.515 0.00654223
64.55 0.0110673
64.585 0.000886659
64.62 -0.00649049
64.655 0.0055723
64.69 0.00398356
64.725 -0.00657709
64.76 0.00365372
64.795 -0.00633626
64.83 0.00372853
64.865 0.0199407
64.9 0.0161569
64.935 0.0183433
64.97 0.0166245
65.005 0.0315334
65.04 0.0156093
65.075 0.00997192
65.11 0.0123456
65.145 0.010079
65.18 0.0109559
65.215 -0.00665384
65.25 0.00605202
65.285 -0.00538548
65.32 -0.00730614
65.355 -0.000122849
65.39 0.000627241
65.425 -0.00222707
65.46 0.00980072
65.495 -4.85858e-05
65.53 0.0101767
65.565 0.00378274
65.6 0.00926879
65.635 0.00208418
65.67 0.00725381
65.705 0.000418345
65.74 0.00626814
65.775 0.000128737
65.81 -0.0134951
65.845 0.00264943
65.88 0.00662332
65.915 -0.00955614
65.93 -0.0152704