File: data/xrd/xy/2019-07-01T19_39_31.550325+00_00_LBL_C4.xy
'Id: "" Comment: "Integrate frame 20190716_acnh3_nprop_4flph_03_002.gfrmwith cursor Wedge Cursor #1" Operator: "UC Berkeley" Anode: "Co" Scantype: "TwoTheta" TimePerStep: "450"
20.115 -0.0388468
20.155 -0.0106774
20.195 0.075386
20.235 0.0462111
20.275 0.0244256
20.315 0.0307319
20.355 0.030828
20.395 0.0340056
20.435 -0.0281737
20.475 0.0147482
20.515 -0.0151687
20.555 0.0165739
20.595 -0.0139324
20.635 0.0199576
20.675 0.0587137
20.715 0.04842
20.755 0.0605928
20.795 0.0497277
20.835 0.0328422
20.875 0.0015882
20.915 0.0396001
20.955 0.0682504
20.995 0.00418799
21.035 -0.0317419
21.075 0.0902955
21.115 0.167319
21.155 0.110747
21.195 0.00231148
21.235 0.0719282
21.275 0.0632854
21.315 0.0610845
21.355 0.122762
21.395 0.170107
21.435 0.035356
21.475 0.102506
21.515 -0.0368029
21.555 0.0925038
21.595 0.0785047
21.635 0.0786313
21.675 -0.0172485
21.715 0.17465
21.755 -3.97676e-05
21.795 0.13346
21.835 0.122704
21.875 0.0079721
21.915 0.0534462
21.955 0.069796
21.995 0.0697072
22.035 0.0731821
22.075 0.179561
22.115 0.0870743
22.155 0.129906
22.195 0.0272366
22.235 0.132277
22.275 0.036663
22.315 0.0763996
22.355 0.0752085
22.395 0.0290888
22.435 0.195092
22.475 0.0901222
22.515 0.085192
22.555 0.169965
22.595 0.221945
22.635 0.191097
22.675 0.357024
22.715 0.444285
22.755 0.387248
22.795 0.408173
22.835 0.523046
22.875 0.364425
22.915 0.166914
22.955 0.148778
22.995 0.142574
23.035 0.156138
23.075 0.124908
23.115 0.139081
23.155 0.08074
23.195 0.0625513
23.235 0.128431
23.275 0.100806
23.315 0.0927045
23.355 0.109316
23.395 0.0729931
23.435 0.119843
23.475 0.140483
23.515 0.146581
23.555 0.164119
23.595 0.120971
23.635 0.141702
23.675 0.0352599
23.715 0.103125
23.755 0.0853584
23.795 0.041278
23.835 0.0960942
23.875 -0.0154716
23.915 0.097138
23.955 0.106995
23.995 0.0962655
24.035 0.11276
24.075 0.135356
24.115 0.0348464
24.155 0.138588
24.195 0.0605325
24.235 0.0131888
24.275 0.0318312
24.315 0.143097
24.355 0.117836
24.395 -0.0299819
24.435 0.0434573
24.475 0.138911
24.515 0.119964
24.555 -0.00479516
24.595 0.0735861
24.635 0.0716765
24.675 0.0196267
24.715 0.109666
24.755 0.0281977
24.795 0.104623
24.835 0.108691
24.875 -0.0147851
24.915 0.0367219
24.955 0.0781645
24.995 0.0684483
25.035 0.0829535
25.075 0.0619551
25.115 0.11239
25.155 0.0680547
25.195 0.0371281
25.235 0.0541334
25.275 0.104864
25.315 0.0201286
25.355 0.0878392
25.395 0.0354658
25.435 0.0465476
25.475 0.0991571
25.515 0.139099
25.555 0.164371
25.595 0.103569
25.635 0.0990257
25.675 0.133279
25.715 0.0844895
25.755 0.0967857
25.795 0.072364
25.835 0.0704999
25.875 0.0990449
25.915 0.00125991
25.955 0.0833724
25.995 0.0589075
26.035 0.0740239
26.075 -0.0162329
26.115 0.128666
26.155 -0.00390147
26.195 0.0683977
26.235 0.0467871
26.275 0.0421255
26.315 0.105899
26.355 -0.0145755
26.395 0.118678
26.435 0.147405
26.475 0.0229497
26.515 0.00571702
26.555 0.0955451
26.595 -0.037028
26.635 0.102929
26.675 0.03406
26.715 0.0708027
26.755 0.0455693
26.795 0.129063
26.835 0.0595829
26.875 0.0157773
26.915 0.032227
26.955 0.0722828
26.995 0.146929
27.035 0.0166395
27.075 0.0796125
27.115 0.0740752
27.155 0.0542128
27.195 0.0580118
27.235 0.051809
27.275 0.0739401
27.315 0.0089525
27.355 -0.0143745
27.395 0.048566
27.435 0.0957045
27.475 0.0313153
27.515 0.0108782
27.555 0.0467939
27.595 -0.0238569
27.635 0.0767152
27.675 0.0234493
27.715 0.0705512
27.755 -0.00395285
27.795 0.0636898
27.835 0.0328186
27.875 0.11912
27.915 0.089609
27.955 0.0576238
27.995 0.0895862
28.035 0.0367672
28.075 0.00889545
28.115 -0.00968418
28.155 0.0148714
28.195 0.03391
28.235 0.0809557
28.275 -0.0246908
28.315 0.0572014
28.355 0.0737286
28.395 0.0695272
28.435 0.0493896
28.475 0.010173
28.515 0.0397043
28.555 0.0655723
28.595 0.142684
28.635 0.0144494
28.675 0.0476635
28.715 0.119222
28.755 0.0824312
28.795 0.11329
28.835 0.126386
28.875 0.180096
28.915 0.156992
28.955 0.131429
28.995 0.120062
29.035 0.0262824
29.075 0.0801846
29.115 0.148906
29.155 0.0679054
29.195 0.142292
29.235 0.230976
29.275 0.321893
29.315 0.456494
29.355 0.659575
29.395 0.818231
29.435 0.841228
29.475 0.674142
29.515 0.449095
29.555 0.353085
29.595 0.217657
29.635 0.214052
29.675 0.151545
29.715 0.0183788
29.755 0.0557151
29.795 0.148471
29.835 0.0824132
29.875 0.0306179
29.915 0.0391773
29.955 0.0981993
29.995 0.101821
30.035 0.126174
30.075 0.236111
30.115 0.268215
30.155 0.339649
30.195 0.255157
30.235 0.17986
30.275 0.149245
30.315 0.0921381
30.355 0.0193148
30.395 0.0352415
30.435 0.0502987
30.475 -0.00847241
30.515 0.0464805
30.555 0.0276719
30.595 0.0263828
30.635 0.0777648
30.675 0.0092182
30.715 0.00878812
30.755 0.0627577
30.795 -0.000773092
30.835 0.0210277
30.875 0.0425181
30.915 0.0425342
30.955 0.000614199
30.995 0.0191708
31.035 -0.0097043
31.075 0.0274008
31.115 0.109392
31.155 0.0688717
31.195 0.0796808
31.235 0.0115871
31.275 0.0420836
31.315 0.0311886
31.355 0.00710066
31.395 -0.0244315
31.435 0.033458
31.475 0.0816715
31.515 0.00640559
31.555 -0.00498589
31.595 0.0337974
31.635 0.0871979
31.675 -0.00362932
31.715 0.0361986
31.755 0.0168098
31.795 0.081483
31.835 0.0381096
31.875 0.0790841
31.915 0.0446831
31.955 0.0421865
31.995 0.0268052
32.035 0.0639004
32.075 0.0303641
32.115 0.0348957
32.155 0.134563
32.195 -0.0102381
32.235 0.0735309
32.275 0.0643211
32.315 0.0396639
32.355 0.0339885
32.395 0.0689977
32.435 0.0524352
32.475 0.023442
32.515 0.115207
32.555 0.0526009
32.595 0.0655871
32.635 0.00428352
32.675 0.0596575
32.715 0.0376568
32.755 0.0698801
32.795 0.0460191
32.835 0.0459031
32.875 0.0402855
32.915 0.0249913
32.955 0.0744914
32.995 0.0460148
33.035 0.0427112
33.075 -0.00706614
33.115 0.0611064
33.155 0.036805
33.195 -0.0270674
33.235 0.0331887
33.275 0.0115634
33.315 0.0575681
33.355 0.0268866
33.395 0.0510717
33.435 -0.00499377
33.475 0.0207057
33.515 0.0180079
33.555 0.0325579
33.595 0.0237863
33.635 0.0519287
33.675 0.0115621
33.715 0.0209566
33.755 0.00850343
33.795 -0.00946453
33.835 0.0149322
33.875 0.0494444
33.915 0.0515225
33.955 0.00874786
33.995 0.00169131
34.035 0.00760774
34.075 0.043936
34.115 0.0559234
34.155 -0.0078436
34.195 0.0284941
34.235 0.0747825
34.275 0.0545973
34.315 0.0799256
34.355 0.0706356
34.395 0.102063
34.435 0.183264
34.475 0.190184
34.515 0.340386
34.555 0.356985
34.595 0.379275
34.635 0.3439
34.675 0.336937
34.715 0.223219
34.755 0.271117
34.795 0.238388
34.835 0.209885
34.875 0.310944
34.915 0.411339
34.955 0.5602
34.995 0.828958
35.035 1.13106
35.075 1.39789
35.115 1.63114
35.155 1.78334
35.195 1.66007
35.235 1.53177
35.275 1.15476
35.315 0.953631
35.355 0.67208
35.395 0.433982
35.435 0.357413
35.475 0.22793
35.515 0.174454
35.555 0.153012
35.595 0.123801
35.635 0.0889204
35.675 0.0476195
35.715 0.0368894
35.755 0.1007
35.795 0.0209476
35.835 0.0113323
35.875 0.0267223
35.915 0.0112526
35.955 0.0278557
35.995 0.003369
36.035 0.0231673
36.075 0.0507791
36.115 -0.0117669
36.155 0.0210298
36.195 0.0188883
36.235 -0.00686597
36.275 0.00782343
36.315 0.0447364
36.355 0.0299256
36.395 -0.0220784
36.435 0.00920471
36.475 0.0258259
36.515 0.0204783
36.555 0.0471206
36.595 0.016734
36.635 0.0166847
36.675 0.0202569
36.715 -0.0168384
36.755 0.0287951
36.795 0.0322847
36.835 0.0740055
36.875 0.0616853
36.915 0.0400468
36.955 0.110437
36.995 0.191998
37.035 0.215793
37.075 0.294139
37.115 0.346614
37.155 0.320569
37.195 0.287317
37.235 0.218197
37.275 0.185834
37.315 0.176237
37.355 0.0626347
37.395 0.0579115
37.435 0.068752
37.475 0.119893
37.515 0.0881414
37.555 0.0543706
37.595 0.0636086
37.635 0.0404784
37.675 0.0424204
37.715 0.0279423
37.755 0.0159829
37.795 0.0258907
37.835 0.0185492
37.875 -0.00570729
37.915 -0.0243657
37.955 -0.0308624
37.995 -0.022158
38.035 -0.01673
38.075 -0.0166936
38.115 0.016799
38.155 -0.00291283
38.195 -0.0223242
38.235 -0.00844755
38.275 -0.0166949
38.315 0.030124
38.355 0.00966875
38.395 0.00654223
38.435 -0.00750014
38.475 0.0228399
38.515 0.0316336
38.555 0.002632
38.595 0.0172018
38.635 -0.00773606
38.675 0.0354222
38.715 0.0171589
38.755 0.0462257
38.795 0.0282747
38.835 0.0423626
38.875 0.00961816
38.915 -0.0210366
38.955 -0.00114444
38.995 0.0222805
39.035 -0.0138991
39.075 0.014765
39.115 0.00407955
39.155 -0.00161586
39.195 0.0318505
39.235 0.0427734
39.275 -0.00231436
39.315 0.0205934
39.355 -0.0090194
39.395 0.0113072
39.435 0.026206
39.475 0.00858857
39.515 -0.0190395
39.555 0.0101559
39.595 0.034732
39.635 0.0121849
39.675 0.0617582
39.715 0.0148986
39.755 0.0565418
39.795 0.0675402
39.835 0.0864017
39.875 0.151752
39.915 0.209374
39.955 0.266028
39.995 0.35355
40.035 0.330838
40.075 0.332449
40.115 0.269339
40.155 0.252487
40.195 0.141954
40.235 0.0924847
40.275 0.0583499
40.315 0.0362035
40.355 0.0569604
40.395 0.046308
40.435 0.0331444
40.475 0.0165459
40.515 0.00323289
40.555 0.0185803
40.595 0.0338288
40.635 -0.0145384
40.675 -0.00675472
40.715 -0.0142332
40.755 0.03132
40.795 0.0263391
40.835 -0.0176199
40.875 0.0416364
40.915 0.00867308
40.955 -0.00143241
40.995 0.0323638
41.035 -0.00997657
41.075 0.0578568
41.115 0.0420735
41.155 0.0287555
41.195 0.0215547
41.235 0.0686096
41.275 0.0709588
41.315 0.0299043
41.355 0.0249468
41.395 0.0567534
41.435 0.0221847
41.475 0.0408341
41.515 0.0814892
41.555 -0.0205496
41.595 0.0534343
41.635 0.0124122
41.675 0.0236254
41.715 0.0388667
41.755 0.0108563
41.795 0.0334906
41.835 0.0435424
41.875 0.0252333
41.915 0.0272887
41.955 0.0193104
41.995 0.0565485
42.035 0.0244807
42.075 0.044871
42.115 0.0182528
42.155 0.00828937
42.195 0.0434357
42.235 0.0113518
42.275 0.0391329
42.315 0.0171712
42.355 0.0325976
42.395 0.0317632
42.435 0.0213226
42.475 0.0332788
42.515 0.014501
42.555 0.0324209
42.595 0.050509
42.635 -0.014022
42.675 -0.00609221
42.715 0.0126314
42.755 0.00664349
42.795 0.0316817
42.835 0.0435147
42.875 -0.0155005
42.915 0.0271796
42.955 0.00960752
42.995 -0.00926092
43.035 0.0240062
43.075 0.0310986
43.115 -0.00665047
43.155 0.0205918
43.195 0.0494512
43.235 0.0131793
43.275 0.0365511
43.315 0.0209726
43.355 0.0343851
43.395 0.0187953
43.435 0.0129097
43.475 0.0544645
43.515 0.0244283
43.555 0.0263594
43.595 0.00145658
43.635 -0.0107237
43.675 0.0476643
43.715 -0.00510142
43.755 0.00512898
43.795 0.0526653
43.835 0.063822
43.875 0.0753264
43.915 0.0855189
43.955 0.0890716
43.995 0.0982247
44.035 0.152637
44.075 0.100288
44.115 0.0800236
44.155 0.0387775
44.195 0.0690025
44.235 0.0911684
44.275 -0.00679907
44.315 0.0213893
44.355 0.028536
44.395 0.0311798
44.435 0.0296152
44.475 0.0413895
44.515 0.00354946
44.555 0.0233843
44.595 0.015135
44.635 0.051269
44.675 0.0199955
44.715 0.0258376
44.755 0.0268481
44.795 0.0278115
44.835 0.0140501
44.875 0.00529835
44.915 0.0527787
44.955 0.0175306
44.995 0.0417516
45.035 0.0738056
45.075 0.0630019
45.115 0.0383546
45.155 0.0216583
45.195 0.0215224
45.235 0.0569541
45.275 0.0344773
45.315 0.00346541
45.355 -0.00548537
45.395 0.0598301
45.435 -0.000136766
45.475 -0.0180214
45.515 -0.00670405
45.555 0.0174227
45.595 -0.00346803
45.635 0.0596397
45.675 0.0364559
45.715 0.0192704
45.755 0.0715166
45.795 0.090113
45.835 0.075478
45.875 0.0511036
45.915 0.0298762
45.955 0.0210184
45.995 0.074805
46.035 0.0754629
46.075 0.102487
46.115 0.127417
46.155 0.149739
46.195 0.185161
46.235 0.269735
46.275 0.303984
46.315 0.341616
46.355 0.495954
46.395 0.578346
46.435 0.676649
46.475 0.931593
46.515 1.07299
46.555 1.41377
46.595 1.5201
46.635 1.55815
46.675 1.53071
46.715 1.35424
46.755 1.09158
46.795 0.917709
46.835 0.667754
46.875 0.463453
46.915 0.391103
46.955 0.236131
46.995 0.209009
47.035 0.126452
47.075 0.100067
47.115 0.0819417
47.155 0.0344322
47.195 0.0468532
47.235 0.027881
47.275 0.0145698
47.315 0.0217397
47.355 -0.0109607
47.395 0.0317952
47.435 0.085274
47.475 0.0787685
47.515 0.0411744
47.555 0.0940315
47.595 0.0835234
47.635 0.0553002
47.675 0.135868
47.715 0.0738271
47.755 0.0543805
47.795 0.024191
47.835 0.0489321
47.875 0.0356638
47.915 0.00892274
47.955 0.0288538
47.995 0.0430359
48.035 0.0312479
48.075 0.0720457
48.115 0.115401
48.155 0.0977007
48.195 0.126158
48.235 0.14386
48.275 0.191419
48.315 0.152907
48.355 0.164726
48.395 0.21281
48.435 0.266958
48.475 0.317425
48.515 0.365382
48.555 0.434103
48.595 0.472126
48.635 0.498949
48.675 0.544985
48.715 0.452798
48.755 0.38172
48.795 0.373507
48.835 0.259756
48.875 0.241251
48.915 0.185667
48.955 0.132551
48.995 0.090882
49.035 0.12081
49.075 0.0829592
49.115 0.0376546
49.155 0.050854
49.195 0.0130734
49.235 0.0289684
49.275 0.0351924
49.315 0.0152054
49.355 0.0323325
49.395 0.000694993
49.435 0.027706
49.475 -0.00405706
49.515 0.0294013
49.555 0.0198672
49.595 -0.0144962
49.635 0.0423218
49.675 0.00452087
49.715 0.00425934
49.755 0.0226375
49.795 -0.00369128
49.835 -0.00695535
49.875 0.00218338
49.915 0.00445475
49.955 0.00926491
49.995 0.0163464
50.035 -0.00489655
50.075 -0.00112818
50.115 0.00630665
50.155 0.0327101
50.195 -0.00521711
50.235 -0.00583584
50.275 0.0070277
50.315 0.00988641
50.355 0.00976355
50.395 0.0365308
50.435 0.0620921
50.475 0.0536235
50.515 0.0325058
50.555 0.0294559
50.595 0.029089
50.635 0.0399511
50.675 0.0120653
50.715 -0.000603914
50.755 0.00904132
50.795 0.0136429
50.835 -0.00401113
50.875 -0.013764
50.915 0.0158836
50.955 -0.0172471
50.995 0.0275621
51.035 -0.0125829
51.075 0.00533622
51.115 -0.0100345
51.155 -0.0269705
51.195 0.0299393
51.235 -0.00337008
51.275 0.0017689
51.315 0.0184934
51.355 0.00173039
51.395 -0.0126107
51.435 -0.00439232
51.475 0.0099988
51.515 -0.0201952
51.555 -0.00614588
51.595 0.0264481
51.635 0.017853
51.675 -0.00336051
51.715 0.0149339
51.755 -0.00997428
51.795 -0.00320739
51.835 -0.0140366
51.875 -0.000774483
51.915 0.00883154
51.955 -0.0107749
51.995 -0.00846784
52.035 0.0406387
52.075 0.015308
52.115 -0.00189029
52.155 0.0101394
52.195 0.0315437
52.235 0.0157344
52.275 -0.00889778
52.315 0.00481816
52.355 -0.00083243
52.395 0.0184861
52.435 0.0075391
52.475 -0.0262754
52.515 0.0156925
52.555 0.0466636
52.595 0.00793206
52.635 0.0288192
52.675 0.0380871
52.715 0.0227601
52.755 -0.00520568
52.795 0.0307736
52.835 0.0575756
52.875 0.0335378
52.915 -0.00433475
52.955 0.0038519
52.995 0.0204599
53.035 -0.0213361
53.075 0.00984721
53.115 0.0302784
53.155 -0.00189192
53.195 -0.024006
53.235 -0.000340639
53.275 0.00486019
53.315 0.0159495
53.355 0.0163362
53.395 0.0122559
53.435 -0.00195487
53.475 -0.00719239
53.515 0.0143217
53.555 -0.0137157
53.595 0.0214191
53.635 -0.000723136
53.675 -0.0131587
53.715 0.0181643
53.755 -0.0131271
53.795 0.00463149
53.835 0.0317487
53.875 -0.00895302
53.915 0.0120761
53.955 -0.0211775
53.995 0.02449
54.035 0.00624423
54.075 0.0130868
54.115 -0.00678369
54.155 0.0100029
54.195 0.00922695
54.235 -0.00442097
54.275 0.00351478
54.315 0.0200869
54.355 0.0370622
54.395 0.0202593
54.435 0.003443
54.475 0.0200072
54.515 0.0406786
54.555 0.0726075
54.595 0.00541397
54.635 0.0184737
54.675 0.0150953
54.715 0.00231257
54.755 -0.00516328
54.795 0.0150507
54.835 -0.00202532
54.875 0.0281773
54.915 0.00162806
54.955 0.0249518
54.995 -0.0183819
55.035 0.0071716
55.075 0.0491007
55.115 0.0112176
55.155 0.00355776
55.195 0.0137214
55.235 0.0238565
55.275 0.0373687
55.315 -0.0180635
55.355 -0.00169097
55.395 0.0495194
55.435 0.0666559
55.475 0.0356662
55.515 0.0792732
55.555 0.0524012
55.595 0.0824526
55.635 0.0634823
55.675 0.0655952
55.715 0.105633
55.755 0.0804614
55.795 0.0976251
55.835 0.117698
55.875 0.144215
55.915 0.166843
55.955 0.212285
55.995 0.237364
56.035 0.322931
56.075 0.33078
56.115 0.33303
56.155 0.387518
56.195 0.349141
56.235 0.29795
56.275 0.267762
56.315 0.189354
56.355 0.142231
56.395 0.114302
56.435 0.0637404
56.475 0.0736529
56.515 0.0344943
56.555 0.034668
56.595 0.0246009
56.635 0.0440518
56.675 -0.0196035
56.715 0.00608431
56.755 0.0208331
56.795 0.0421262
56.835 0.0104097
56.875 0.0446208
56.915 -0.0194426
56.955 0.0293913
56.995 0.0128786
57.035 0.010771
57.075 -0.00872232
57.115 -0.00220227
57.155 0.0123626
57.195 0.0552062
57.235 -0.00426922
57.275 0.0202824
57.315 0.00170012
57.355 -0.0135715
57.395 0.0196802
57.435 0.0187889
57.475 -0.0101211
57.515 -0.00883936
57.555 0.0161779
57.595 0.0357367
57.635 0.0166457
57.675 -0.0127133
57.715 -0.00225284
57.755 -0.0052444
57.795 -0.0181761
57.835 0.0296451
57.875 0.0154866
57.915 0.00392153
57.955 0.0290993
57.995 0.0154067
58.035 0.0351182
58.075 0.0375962
58.115 0.0146002
58.155 0.0184207
58.195 0.0416915
58.235 -0.00932627
58.275 -0.0117595
58.315 0.025676
58.355 0.0487229
58.395 0.00936054
58.435 0.0106493
58.475 -0.00604128
58.515 0.0181913
58.555 0.000989294
58.595 0.0610422
58.635 0.0270198
58.675 0.0190304
58.715 0.0176257
58.755 -0.00628606
58.795 0.054714
58.835 0.0243092
58.875 0.0537259
58.915 0.0219496
58.955 0.00422164
58.995 0.0457455
59.035 0.0274809
59.075 0.0270033
59.115 0.0325166
59.155 0.0336757
59.195 0.0327064
59.235 0.0209644
59.275 0.0390794
59.315 0.0372645
59.355 0.0620875
59.395 0.0563751
59.435 0.0696949
59.475 0.066128
59.515 0.0534095
59.555 0.127798
59.595 0.0887412
59.635 0.140071
59.675 0.147264
59.715 0.16562
59.755 0.161651
59.795 0.170417
59.835 0.187435
59.875 0.157469
59.915 0.15638
59.955 0.104272
59.995 0.09184
60.035 0.0643234
60.075 0.0558848
60.115 0.0511914
60.155 0.0441305
60.195 0.0260284
60.235 0.0143022
60.275 0.0806303
60.315 0.0257688
60.355 0.0282459
60.395 0.0405626
60.435 0.00643171
60.475 0.0149247
60.515 0.0638808
60.555 0.0243342
60.595 0.0493184
60.635 0.0140405
60.675 0.0219107
60.715 0.0427175
60.755 0.0467566
60.795 0.048924
60.835 0.0144279
60.875 0.0717368
60.915 0.0717095
60.955 0.0486067
60.995 0.089888
61.035 0.0712456
61.075 0.0924577
61.115 0.0510362
61.155 0.0766417
61.195 0.0642396
61.235 0.0305983
61.275 0.0407357
61.315 0.0443763
61.355 0.00846767
61.395 0.0585402
61.435 0.00863223
61.475 0.0191192
61.515 0.00593138
61.555 0.0140013
61.595 0.0202474
61.635 0.00600872
61.675 -0.0214145
61.715 0.0369139
61.755 0.012923
61.795 0.00479613
61.835 -0.00883924
61.875 0.0432348
61.915 0.0307912
61.955 -0.0141662
61.995 0.0107933
62.035 0.0079267
62.075 0.0120252
62.115 0.0178729
62.155 -0.00957788
62.195 0.0295631
62.235 -0.00343356
62.275 -0.00857496
62.315 0.0416966
62.355 0.0183974
62.395 0.0335851
62.435 0.00703744
62.475 0.00687162
62.515 0.00175855
62.555 -0.00671888
62.595 -0.000378649
62.635 -0.00105853
62.675 0.0407545
62.715 -0.00864252
62.755 0.0240935
62.795 0.0142165
62.835 -0.0116905
62.875 0.0519864
62.915 0.0560745
62.955 0.0421059
62.995 0.0254388
63.035 0.029958
63.075 0.0309295
63.115 0.0246415
63.155 0.0503811
63.195 0.053989
63.235 0.0285935
63.275 0.0223234
63.315 0.0434254
63.355 0.0467962
63.395 0.00518769
63.435 -0.00556196
63.475 0.00245352
63.515 0.0225883
63.555 0.0547575
63.595 0.0519911
63.635 0.0766242
63.675 0.0448693
63.715 0.0471023
63.755 0.0467526
63.795 0.0225261
63.835 0.0243569
63.875 0.0228985
63.915 0.0389179
63.955 0.0384755
63.995 0.0367109
64.035 0.0419758
64.075 0.0281071
64.115 0.0527753
64.155 0.0325776
64.195 0.0394166
64.235 0.0537261
64.275 -0.00178378
64.315 0.0179446
64.355 0.0563824
64.395 0.0189312
64.435 0.0419004
64.475 0.0240768
64.515 0.043896
64.555 0.00867009
64.595 0.0376654
64.635 0.0402065
64.675 0.0472176
64.715 0.0493441
64.755 0.0374109
64.795 0.0557122
64.835 0.0627692
64.875 0.050105
64.915 0.0528462
64.955 0.0356472
64.995 0.0605714
65.035 0.054154
65.075 0.0261177
65.115 0.0464246
65.155 0.0474058
65.195 0.0387568
65.235 0.0436918
65.275 0.0427212
65.315 0.0545071
65.355 0.0279564
65.395 0.05727
65.435 0.0132967
65.475 -0.00198696
65.515 0.0297098
65.555 0.0600088
65.595 0.053788
65.635 0.0148001
65.675 0.0322921
65.715 0.0297255
65.755 0.00873339
65.795 0.0159746
65.835 0.0353122
65.875 0.0543781
65.915 0.0305936
65.955 0.0439344
65.995 0.0518445
66.035 0.0521964
66.075 0.0374693
66.115 0.0314756
66.155 0.0386705
66.195 0.0447247
66.235 0.0702901
66.275 0.0256159
66.315 0.0435154
66.355 0.0310689
66.395 0.0164307
66.435 0.0210462
66.475 0.022288
66.515 0.0378294
66.555 0.0107006
66.595 0.0417277
66.635 0.00735237
66.675 0.0155657
66.715 0.0426494
66.755 0.0178719
66.795 0.0365497
66.835 0.026521
66.875 0.0219222
66.915 -0.00354856
66.955 0.0170584
66.995 0.0534834
67.035 0.0191328
67.075 -0.0168685
67.115 0.0139142
67.155 0.00627892
67.195 0.0160017
67.235 0.0371187
67.275 -0.00117869
67.315 0.00325139
67.355 0.0284559
67.395 0.0190699
67.435 0.0483954
67.475 0.0529946
67.515 0.00700187
67.555 0.0244449
67.595 0.0147042
67.635 0.0328262
67.675 0.0346486
67.715 0.00992346
67.755 0.0451615
67.795 0.0311963
67.835 0.0267811
67.875 -0.000144188
67.915 0.0533994
67.955 0.0372034
67.995 -0.00651918
68.035 -0.0196903
68.075 0.0311524
68.115 0.000125452
68.155 0.0304129
68.195 0.0187301
68.235 0.0240991
68.275 0.032214
68.315 0.0209168
68.355 0.00492712
68.395 0.00906128
68.435 0.0187041
68.475 0.00944764
68.515 -0.016281
68.555 0.0148236
68.595 0.0297394
68.635 0.00724925
68.675 0.0265344
68.715 0.0481737
68.755 0.0103867
68.795 0.0276869
68.835 0.0314633
68.875 -0.000208733
68.915 0.0500669
68.955 0.0498527
68.995 0.0416699
69.035 0.04395
69.075 0.0538182
69.115 0.0386002
69.155 0.0203006
69.195 0.0779371
69.235 0.0855104
69.275 0.0800491
69.315 0.0671132
69.355 0.0770723
69.395 0.108427
69.435 0.0860232
69.475 0.0836317
69.515 0.0637637
69.555 0.0868562
69.595 0.045953
69.635 0.0259005
69.675 0.032181
69.715 0.0102745
69.755 0.0393585
69.795 0.00225138
69.835 0.0633686
69.875 0.0211168
69.915 0.0250514
69.955 0.0132334
69.995 0.0176998
70.035 0.0306376
70.075 0.03638
70.115 0.0198485
70.155 0.0175221
70.195 0.0155894
70.235 0.024982
70.275 0.0343629
70.315 0.0285403
70.355 0.0374452
70.395 0.0252518
70.435 0.0482685
70.475 0.0116273
70.515 0.0307576
70.555 0.00206346
70.595 0.0142855
70.635 -0.0199834
70.675 0.0543828
70.715 0.0334968
70.755 0.0190924
70.795 0.040178
70.835 -0.0188024
70.875 0.0556832
70.915 0.0266696
70.955 0.0592738
70.995 0.0111784
71.035 0.0102674
71.075 -0.000144852
71.115 0.0489576
71.155 0.0100586
71.195 -0.00188281
71.235 0.00578924
71.275 0.0333016
71.315 -0.00163542
71.355 0.0236223
71.395 0.0139803
71.435 0.00975752
71.475 0.00235398
71.515 0.0122806
71.555 0.016961
71.595 0.0311998
71.635 0.031691
71.675 0.035037
71.715 0.0182325
71.755 0.0182188
71.795 -0.00934494
71.835 0.0212809
71.875 0.00374136
71.915 0.00343519
71.955 0.0221067
71.995 0.0603263
72.035 0.0135947
72.075 0.0044528
72.115 0.00576349
72.155 0.00507694
72.195 0.016522
72.235 0.0378186
72.275 0.007207
72.315 0.0232463
72.355 0.0433563
72.395 0.0374974
72.435 0.0434034
72.475 0.0275646
72.515 0.0469861
72.555 0.0168254
72.595 0.0251221
72.635 0.0432983
72.675 0.0486725
72.715 0.0263171
72.755 0.0553992
72.795 0.0426774
72.835 0.027696
72.875 0.0547987
72.915 0.0477714
72.955 0.0420663
72.995 0.0518692
73.035 0.0519158
73.075 0.052549
73.115 0.0225699
73.155 0.0357547
73.195 0.0286439
73.235 0.0470173
73.275 0.0443972
73.315 0.0255908
73.355 0.0168538
73.395 0.0528494
73.435 0.0129494
73.475 0.0520237
73.515 0.0185903
73.555 0.0315686
73.595 -0.000373671
73.635 0.038668
73.675 -0.0183125
73.715 0.0319762
73.755 0.012948
73.795 0.0282719
73.835 0.000531079
73.875 0.0179375
73.915 0.0612288
73.955 -0.00984668
73.995 0.022851
74.035 -0.0197763
74.075 0.0393588
74.115 -0.00439758
74.155 0.0277206
74.195 0.025407
74.235 -0.0109143
74.275 0.0189479
74.315 0.0203756
74.355 0.0133402
74.395 0.00825104
74.435 0.0303586
74.475 -0.0112837
74.515 0.0499378
74.555 0.0317349
74.595 0.0156699
74.635 -0.00578682
74.675 0.0244172
74.715 0.0185272
74.755 -0.0202746