File: data/xrd/xy/2019-07-01T19_39_31.550325+00_00_LBL_A9.xy
'Id: "" Comment: "Integrate frame 20190716_acnh3_nprop_4flph_05_003.gfrmwith cursor Wedge Cursor #3" Operator: "UC Berkeley" Anode: "Co" Scantype: "TwoTheta" TimePerStep: "450"
13.49 -0.0279622
13.535 0.0134474
13.58 0.0561557
13.625 0.0661068
13.67 0.0399753
13.715 0.0411028
13.76 0.0690709
13.805 0.0655424
13.85 0.0345039
13.895 0.0952948
13.94 0.0566397
13.985 0.0191654
14.03 0.0636479
14.075 -0.00673894
14.12 0.0918035
14.165 0.0700893
14.21 0.0444319
14.255 0.0682811
14.3 0.137494
14.345 0.119348
14.39 0.0512096
14.435 0.137476
14.48 0.0293609
14.525 0.0725262
14.57 0.146321
14.615 0.159617
14.66 0.247566
14.705 0.346322
14.75 0.370746
14.795 0.344939
14.84 0.319648
14.885 0.179596
14.93 0.0897177
14.975 0.173408
15.02 0.0705313
15.065 0.119081
15.11 0.0719936
15.155 0.0364169
15.2 0.0828878
15.245 0.0811364
15.29 0.050043
15.335 0.0788013
15.38 0.0401841
15.425 0.15697
15.47 0.0581889
15.515 0.0352499
15.56 0.0529112
15.605 0.0916135
15.65 0.0730193
15.695 0.0557973
15.74 0.0768603
15.785 0.042338
15.83 0.0473825
15.875 0.0619449
15.92 0.0793072
15.965 0.00461547
16.01 0.116641
16.055 0.0577628
16.1 0.0840752
16.145 0.0571405
16.19 0.0486713
16.235 0.0402979
16.28 0.0288746
16.325 0.0396747
16.37 0.0767016
16.415 0.0216726
16.46 0.0860363
16.505 0.114903
16.55 0.0702086
16.595 0.0832612
16.64 0.0324349
16.685 0.0498467
16.73 0.0254592
16.775 0.0495325
16.82 0.106355
16.865 0.0408404
16.91 0.0308157
16.955 0.104123
17 0.0706438
17.045 0.0365299
17.09 0.0242048
17.135 0.0850713
17.18 0.0183004
17.225 0.0494919
17.27 0.0232966
17.315 0.0109114
17.36 0.0393184
17.405 0.0838174
17.45 0.0400749
17.495 0.0310741
17.54 0.0200097
17.585 -0.0287211
17.63 0.0330851
17.675 0.0517966
17.72 0.0165755
17.765 0.0558408
17.81 0.0413968
17.855 0.0892351
17.9 0.0643561
17.945 0.082162
17.99 0.0296626
18.035 0.0873025
18.08 0.0184687
18.125 0.0181459
18.17 0.0250156
18.215 0.0636494
18.26 0.0724924
18.305 0.050141
18.35 0.00599362
18.395 0.0242411
18.44 0.0631031
18.485 0.0247081
18.53 0.0128804
18.575 0.0554788
18.62 0.121801
18.665 0.11321
18.71 0.0387828
18.755 0.0345217
18.8 0.0619744
18.845 0.0369965
18.89 0.062039
18.935 0.0419528
18.98 0.0633963
19.025 0.0692961
19.07 0.0707865
19.115 0.041853
19.16 0.0779949
19.205 0.0221418
19.25 0.0965361
19.295 0.109307
19.34 0.0315139
19.385 0.052214
19.43 0.0717849
19.475 0.0293487
19.52 0.0186533
19.565 0.133562
19.61 0.0599579
19.655 0.0981888
19.7 0.0844426
19.745 0.0363959
19.79 0.0380706
19.835 0.0461126
19.88 0.0952259
19.925 0.0651785
19.97 0.045985
20.015 0.0261775
20.06 0.0171159
20.105 0.0779846
20.15 0.026282
20.195 0.0287314
20.24 0.0841924
20.285 0.0872059
20.33 -0.00512457
20.375 0.00717626
20.42 0.056493
20.465 0.0584304
20.51 0.0409221
20.555 0.0361284
20.6 0.0217244
20.645 0.0359728
20.69 0.11509
20.735 0.00123757
20.78 0.032172
20.825 0.0197077
20.87 -0.00133955
20.915 0.087932
20.96 0.0449736
21.005 0.0413386
21.05 0.0485953
21.095 0.0848457
21.14 0.0880881
21.185 0.0246354
21.23 0.0967198
21.275 0.0639272
21.32 0.0928868
21.365 0.0420115
21.41 0.0601859
21.455 0.0926455
21.5 -0.0164371
21.545 0.0176128
21.59 0.0439875
21.635 0.0762695
21.68 0.00902491
21.725 0.127305
21.77 0.101834
21.815 0.10118
21.86 0.0193421
21.905 0.0364462
21.95 0.0236907
21.995 0.054832
22.04 0.0512105
22.085 0.0736745
22.13 0.0934399
22.175 0.0105634
22.22 0.0690297
22.265 0.107108
22.31 -0.00119749
22.355 0.0525889
22.4 0.0655369
22.445 0.0353618
22.49 0.0969491
22.535 0.0590662
22.58 0.0284153
22.625 0.0101399
22.67 0.0905223
22.715 0.0415779
22.76 0.0599058
22.805 0.0411101
22.85 0.0412325
22.895 0.0124527
22.94 0.0283811
22.985 0.0668211
23.03 0.047439
23.075 0.0619609
23.12 0.0537066
23.165 0.0671365
23.21 -0.0042039
23.255 0.0535734
23.3 0.10956
23.345 0.0853102
23.39 0.145362
23.435 0.0338231
23.48 0.0657049
23.525 0.0535199
23.57 0.0662577
23.615 0.0413025
23.66 0.0885256
23.705 0.0621632
23.75 0.0411809
23.795 0.00734805
23.84 -0.0217017
23.885 0.0346752
23.93 -0.00370101
23.975 0.0565291
24.02 0.0225411
24.065 0.0987993
24.11 0.0405676
24.155 0.0869511
24.2 0.0492041
24.245 0.0584944
24.29 0.0272699
24.335 0.0193167
24.38 0.0835199
24.425 0.0236574
24.47 0.0931783
24.515 -0.0155271
24.56 0.0281191
24.605 0.0290653
24.65 0.043955
24.695 0.00322854
24.74 0.0326172
24.785 0.0336565
24.83 0.0286247
24.875 -0.000105652
24.92 0.0243321
24.965 0.0307344
25.01 0.0526007
25.055 0.0160549
25.1 0.0152572
25.145 0.0366132
25.19 0.0148804
25.235 0.0540022
25.28 0.0129722
25.325 -0.0191285
25.37 0.0283945
25.415 0.0782582
25.46 -0.00578369
25.505 0.0413288
25.55 0.0367721
25.595 0.00344698
25.64 0.0257807
25.685 0.0325149
25.73 -0.0109256
25.775 0.0334927
25.82 0.0219244
25.865 0.0026813
25.91 0.0381158
25.955 -0.0271277
26 0.0350318
26.045 0.0423207
26.09 0.0560673
26.135 0.0630228
26.18 0.0380922
26.225 0.0808998
26.27 0.0832434
26.315 0.0397911
26.36 0.0583626
26.405 0.0342995
26.45 0.039104
26.495 0.0303013
26.54 0.0360632
26.585 0.0380213
26.63 -0.000575255
26.675 0.0281832
26.72 0.0690069
26.765 0.0529643
26.81 0.0228746
26.855 0.0285722
26.9 0.000853307
26.945 -0.00575077
26.99 0.0107282
27.035 0.0357338
27.08 0.100885
27.125 0.0466736
27.17 -0.00302471
27.215 0.0595472
27.26 0.121426
27.305 0.114109
27.35 0.210978
27.395 0.183602
27.44 0.113139
27.485 0.193049
27.53 0.197592
27.575 0.164464
27.62 0.28993
27.665 0.190131
27.71 0.140635
27.755 0.0996519
27.8 0.0343058
27.845 0.0755471
27.89 0.0587868
27.935 0.0627851
27.98 0.0494819
28.025 -0.00491042
28.07 0.0373598
28.115 0.0387916
28.16 0.0643468
28.205 0.0536456
28.25 0.132579
28.295 0.136175
28.34 0.0966221
28.385 0.0866765
28.43 0.0605872
28.475 0.000724785
28.52 0.0209666
28.565 0.00389103
28.61 0.0541615
28.655 0.0361091
28.7 0.0724199
28.745 -0.00508715
28.79 0.0182162
28.835 0.0524226
28.88 0.070153
28.925 0.129559
28.97 0.144868
29.015 0.257716
29.06 0.400023
29.105 0.495007
29.15 0.551608
29.195 0.399915
29.24 0.358088
29.285 0.211172
29.33 0.220242
29.375 0.196834
29.42 0.157582
29.465 0.144486
29.51 0.099675
29.555 0.187649
29.6 0.208204
29.645 0.341693
29.69 0.465092
29.735 0.436366
29.78 0.369333
29.825 0.266814
29.87 0.193572
29.915 0.188296
29.96 0.299562
30.005 0.362544
30.05 0.688828
30.095 1.3553
30.14 2.17924
30.185 2.8071
30.23 2.7021
30.275 1.96083
30.32 1.16646
30.365 0.530416
30.41 0.284322
30.455 0.155714
30.5 0.155199
30.545 0.0958056
30.59 0.0741096
30.635 0.0662317
30.68 0.109416
30.725 0.0698358
30.77 0.0584471
30.815 0.0538909
30.86 0.050954
30.905 0.0398248
30.95 0.0552133
30.995 0.0181807
31.04 0.070168
31.085 0.055643
31.13 0.0805747
31.175 0.0655503
31.22 0.0189942
31.265 0.0302159
31.31 0.0447849
31.355 -0.00609384
31.4 0.0515535
31.445 0.0853355
31.49 0.0268837
31.535 -0.014507
31.58 0.0284529
31.625 0.0515916
31.67 -0.00537569
31.715 0.0262322
31.76 0.0475879
31.805 0.0692149
31.85 0.0531816
31.895 0.116797
31.94 0.162241
31.985 0.143395
32.03 0.237712
32.075 0.201227
32.12 0.133895
32.165 0.104036
32.21 0.0814745
32.255 0.0697066
32.3 0.042358
32.345 0.0380985
32.39 0.0208994
32.435 0.0323613
32.48 0.043848
32.525 0.0815262
32.57 0.025949
32.615 0.0889042
32.66 0.121317
32.705 0.0859191
32.75 0.103309
32.795 0.0438957
32.84 0.0630673
32.885 0.0468959
32.93 0.0353733
32.975 0.0203197
33.02 0.0549141
33.065 0.0482379
33.11 0.0295411
33.155 0.0534007
33.2 0.0205768
33.245 0.00417796
33.29 0.0167729
33.335 -0.00504032
33.38 0.0109106
33.425 0.016116
33.47 0.016057
33.515 0.00604223
33.56 0.0595114
33.605 0.0023108
33.65 -0.00327009
33.695 0.02704
33.74 -0.000109448
33.785 0.0379941
33.83 0.0898939
33.875 0.0523944
33.92 0.0821047
33.965 0.15688
34.01 0.208309
34.055 0.206352
34.1 0.172503
34.145 0.111558
34.19 0.07985
34.235 0.0714238
34.28 0.020039
34.325 0.00772667
34.37 0.0382011
34.415 0.0298527
34.46 0.0112719
34.505 0.00380584
34.55 0.0359057
34.595 0.0263892
34.64 0.0349113
34.685 0.0208523
34.73 0.0685454
34.775 0.0735195
34.82 0.11019
34.865 0.138152
34.91 0.174051
34.955 0.153613
35 0.137423
35.045 0.0858353
35.09 0.0624153
35.135 0.0731697
35.18 -0.0156155
35.225 0.0438168
35.27 0.0437941
35.315 0.0522843
35.36 0.00899819
35.405 0.0281801
35.45 0.0231619
35.495 0.0428334
35.54 0.0464388
35.585 0.0145314
35.63 0.0118654
35.675 0.028803
35.72 -0.00793392
35.765 0.0167795
35.81 0.0287061
35.855 0.00757617
35.9 0.0114766
35.945 0.0316101
35.99 0.0286732
36.035 0.0253434
36.08 0.0167939
36.125 0.0549447
36.17 0.0310222
36.215 0.0227449
36.26 0.0145684
36.305 0.0291885
36.35 0.0193218
36.395 0.0270331
36.44 0.0252355
36.485 -0.00606671
36.53 0.042138
36.575 0.0141401
36.62 0.0386485
36.665 0.0308326
36.71 0.0364482
36.755 0.00507039
36.8 0.00909658
36.845 0.0256214
36.89 0.0924972
36.935 0.132879
36.98 0.164507
37.025 0.250696
37.07 0.26862
37.115 0.260089
37.16 0.232215
37.205 0.207354
37.25 0.114431
37.295 0.0461041
37.34 0.0155331
37.385 0.0497652
37.43 0.00483676
37.475 0.00534648
37.52 -0.00732729
37.565 0.0169825
37.61 -0.0187238
37.655 0.0182597
37.7 0.00954665
37.745 0.0288881
37.79 0.0371446
37.835 0.0716756
37.88 0.0234255
37.925 0.0326945
37.97 0.0677018
38.015 0.00303298
38.06 0.0284072
38.105 0.0464253
38.15 -0.0140158
38.195 0.0179138
38.24 -0.023763
38.285 0.00189067
38.33 0.0249663
38.375 0.0367653
38.42 0.0407182
38.465 0.0254163
38.51 0.0265653
38.555 0.0197697
38.6 0.0791681
38.645 0.0437262
38.69 0.0260495
38.735 0.0413519
38.78 0.0595983
38.825 0.0654634
38.87 0.0684311
38.915 0.0217471
38.96 0.0663569
39.005 0.0590954
39.05 0.0483536
39.095 0.0590046
39.14 0.057012
39.185 0.0743074
39.23 0.0382745
39.275 0.0664429
39.32 0.0282763
39.365 0.0741427
39.41 0.0419913
39.455 0.0548335
39.5 0.0769364
39.545 0.0857246
39.59 0.0692902
39.635 0.115695
39.68 0.0939208
39.725 0.215915
39.77 0.313179
39.815 0.521774
39.86 0.863346
39.905 1.31933
39.95 1.91204
39.995 2.47066
40.04 2.68397
40.085 2.53473
40.13 2.02282
40.175 1.40349
40.22 0.834056
40.265 0.480644
40.31 0.282934
40.355 0.192304
40.4 0.113638
40.445 0.104032
40.49 0.0804982
40.535 0.0512962
40.58 0.0519965
40.625 0.0397161
40.67 0.0388817
40.715 0.0645473
40.76 0.0545141
40.805 0.0429406
40.85 0.0527695
40.895 0.0326711
40.94 0.0436726
40.985 0.0205598
41.03 0.0206101
41.075 0.0217461
41.12 0.0174659
41.165 0.0416152
41.21 0.0111432
41.255 0.0445989
41.3 0.0285065
41.345 -0.0130972
41.39 0.0386758
41.435 0.0188537
41.48 0.0172532
41.525 0.0442915
41.57 0.0608236
41.615 0.0554339
41.66 0.0565332
41.705 0.0536988
41.75 0.0282143
41.795 0.0494014
41.84 0.045732
41.885 0.0149373
41.93 0.0187098
41.975 0.0167622
42.02 0.0101607
42.065 0.037106
42.11 0.00245922
42.155 0.01615
42.2 0.0249422
42.245 0.0213209
42.29 0.00601243
42.335 0.00999645
42.38 0.00994122
42.425 0.0498728
42.47 0.0336849
42.515 0.0679754
42.56 0.0409834
42.605 0.0404204
42.65 0.0412702
42.695 0.0434436
42.74 0.0330831
42.785 -0.0180026
42.83 0.0454899
42.875 -0.0063076
42.92 0.0208214
42.965 0.0168805
43.01 0.0282824
43.055 0.00874252
43.1 0.00602508
43.145 0.0354208
43.19 0.0665948
43.235 0.0254626
43.28 0.0687952
43.325 0.0501825
43.37 0.0298282
43.415 0.0179991
43.46 0.0171363
43.505 0.0264127
43.55 0.00942985
43.595 0.0197142
43.64 -8.44096e-05
43.685 0.0243429
43.73 0.0311366
43.775 0.0273524
43.82 0.0176812
43.865 -0.00948183
43.91 0.0390003
43.955 0.0462663
44 0.0576838
44.045 0.02374
44.09 0.0082807
44.135 -0.00351082
44.18 0.00836884
44.225 -0.00935276
44.27 0.0209317
44.315 0.0380003
44.36 0.00686648
44.405 0.0118511
44.45 0.0715511
44.495 -0.00170789
44.54 -0.0127789
44.585 0.0227507
44.63 0.0221154
44.675 0.0144748
44.72 0.00110312
44.765 0.0437373
44.81 0.0943607
44.855 0.056375
44.9 0.119996
44.945 0.182269
44.99 0.340251
45.035 0.545369
45.08 0.831403
45.125 1.25193
45.17 1.6454
45.215 2.0386
45.26 2.23326
45.305 2.08008
45.35 1.70667
45.395 1.14064
45.44 0.732834
45.485 0.354844
45.53 0.158371
45.575 0.153364
45.62 0.110386
45.665 0.0171374
45.71 0.0622995
45.755 0.0312421
45.8 0.0460145
45.845 0.0774424
45.89 0.0578532
45.935 0.0692752
45.98 0.144162
46.025 0.282526
46.07 0.390598
46.115 0.511345
46.16 0.611856
46.205 0.721968
46.25 0.861111
46.295 0.805607
46.34 0.630564
46.385 0.502309
46.43 0.359555
46.475 0.248149
46.52 0.128039
46.565 0.116768
46.61 0.100436
46.655 0.0837153
46.7 0.102062
46.745 0.129964
46.79 0.11788
46.835 0.110318
46.88 0.0923766
46.925 0.075591
46.97 0.0393033
47.015 0.0389525
47.06 0.0653326
47.105 0.0371185
47.15 0.0487565
47.195 -0.0212234
47.24 0.000223994
47.285 -0.00209391
47.33 0.0118929
47.375 0.00998977
47.42 0.0138259
47.465 0.00892978
47.51 0.00575183
47.555 -0.0073854
47.6 0.00927272
47.645 0.00876936
47.69 0.00685214
47.735 0.0209052
47.78 0.00989604
47.825 -0.00859715
47.87 0.034751
47.915 0.0556439
47.96 0.0467591
48.005 0.069826
48.05 0.0452837
48.095 0.0320111
48.14 0.0395217
48.185 0.0224816
48.23 0.0215629
48.275 0.0380828
48.32 0.0298207
48.365 0.0126725
48.41 0.00901374
48.455 0.0264638
48.5 0.0351957
48.545 0.0818966
48.59 0.0985495
48.635 0.139853
48.68 0.18086
48.725 0.177998
48.77 0.250118
48.815 0.245748
48.86 0.220344
48.905 0.224227
48.95 0.182748
48.995 0.120495
49.04 0.0728196
49.085 0.0320289
49.13 0.0022351
49.175 0.0171916
49.22 0.0202954
49.265 -0.00979768
49.31 0.0334837
49.355 0.0034493
49.4 0.00253339
49.445 0.0429537
49.49 0.0189224
49.535 0.00326822
49.58 -0.0124665
49.625 0.0207615
49.67 -0.00963223
49.715 0.0159174
49.76 0.0188636
49.805 0.0305393
49.85 0.0346215
49.895 0.0157702
49.94 0.026151
49.985 0.0490399
50.03 0.0566715
50.075 0.054459
50.12 0.0527514
50.165 0.0487253
50.21 0.0440735
50.255 0.0674298
50.3 0.0879074
50.345 0.0556039
50.39 0.0589133
50.435 0.0507179
50.48 0.0573064
50.525 0.0668555
50.57 0.0689191
50.615 0.0264177
50.66 0.0371026
50.705 0.0218225
50.75 0.00559434
50.795 0.0278928
50.84 0.031354
50.885 0.0345677
50.93 0.0176813
50.975 0.0442242
51.02 0.0261914
51.065 0.0168009
51.11 0.0594332
51.155 0.00774363
51.2 -0.0030228
51.245 -0.00292247
51.29 0.0174011
51.335 0.0314837
51.38 0.0108323
51.425 -0.00136911
51.47 0.00167396
51.515 0.0102967
51.56 -0.00246092
51.605 -0.00873117
51.65 0.0181955
51.695 0.0173436
51.74 0.00581584
51.785 -0.0144393
51.83 -0.0132289
51.875 -0.00395871
51.92 -0.00110123
51.965 -0.0146087
52.01 -0.00778159
52.055 -0.0164118
52.1 0.00220223
52.145 -0.00445712
52.19 -0.00855613
52.235 0.0253414
52.28 0.00970349
52.325 -0.00569303
52.37 0.0389435
52.415 0.0145264
52.46 0.0325224
52.505 0.0225495
52.55 0.058733
52.595 0.0327507
52.64 0.112249
52.685 0.139212
52.73 0.202877
52.775 0.336325
52.82 0.450893
52.865 0.555559
52.91 0.684039
52.955 0.90404
53 1.01816
53.045 1.0877
53.09 1.16083
53.135 1.04476
53.18 0.826008
53.225 0.68237
53.27 0.467827
53.315 0.322706
53.36 0.179307
53.405 0.102932
53.45 0.0665105
53.495 0.0441213
53.54 0.0465553
53.585 0.0199056
53.63 0.0289231
53.675 0.0153823
53.72 0.00333224
53.765 -0.0074023
53.81 0.0161699
53.855 0.0102345
53.9 0.0267352
53.945 0.0388417
53.99 0.00364445
54.035 0.0220751
54.08 -0.0143931
54.125 -0.00550196
54.17 0.00337764
54.215 -0.0113711
54.26 -0.000616406
54.305 0.00259408
54.35 -0.00980551
54.395 0.00460843
54.44 -0.00831609
54.485 0.0104116
54.53 -0.00417324
54.575 0.0163151
54.62 -0.0117202
54.665 0.0121789
54.71 -0.00636072
54.755 -0.00598404
54.8 -0.000385588
54.845 0.0088856
54.89 -0.0116702
54.935 0.00479816
54.98 -0.00761582
55.025 -0.0106022
55.07 0.0218553
55.115 0.00750703
55.16 -0.00243084
55.205 -0.00979764
55.25 -0.0184758
55.295 0.00736426
55.34 0.0293511
55.385 -0.000218792
55.43 0.0219024
55.475 0.00643409
55.52 -0.02003
55.565 0.0262316
55.61 0.00564132
55.655 0.0258539
55.7 0.0353648
55.745 0.0408487
55.79 0.0225313
55.835 0.0313086
55.88 0.0762245
55.925 0.0829315
55.97 0.0935691
56.015 0.151674
56.06 0.178673
56.105 0.219432
56.15 0.245872
56.195 0.272741
56.24 0.281777
56.285 0.236959
56.33 0.214715
56.375 0.221015
56.42 0.176348
56.465 0.103496
56.51 0.0688258
56.555 0.0631026
56.6 0.0486044
56.645 0.0385039
56.69 0.0400551
56.735 -0.00232319
56.78 0.0295189
56.825 0.033103
56.87 0.0210406
56.915 0.0184783
56.96 0.01889
57.005 0.0381426
57.05 0.0383261
57.095 0.0221144
57.14 0.000106212
57.185 -0.0161538
57.23 0.00307667
57.275 0.0138508
57.32 0.00168803
57.365 0.00764243
57.41 0.0264282
57.455 0.0360867
57.5 0.0314929
57.545 -0.00160157
57.59 0.0233821
57.635 0.0221657
57.68 -0.015938
57.725 0.0092115
57.77 0.00910658
57.815 -0.017734
57.86 0.0251951
57.905 0.0250982
57.95 0.00857339
57.995 -0.00551669
58.04 0.0126592
58.085 0.0219728
58.13 0.0369553
58.175 0.0213217
58.22 0.0389858
58.265 0.055201
58.31 0.0609344
58.355 0.0794894
58.4 0.0632907
58.445 0.0531146
58.49 0.0877875
58.535 0.0891175
58.58 0.0363851
58.625 0.047195
58.67 0.0670738
58.715 0.0126725
58.76 0.042157
58.805 0.0512226
58.85 0.0413802
58.895 0.0451322
58.94 0.0420975
58.985 0.0185303
59.03 0.00266078
59.075 0.0248105
59.12 0.051504
59.165 0.0311629
59.21 0.0125487
59.255 0.00667147
59.3 0.0109255
59.345 0.0102133
59.39 0.0447872
59.435 0.0228076
59.48 0.00697318
59.525 0.00797401
59.57 0.0363421
59.615 0.0342102
59.66 0.0289035
59.705 0.0363431
59.75 0.0245047
59.795 0.0323441
59.84 0.0424251
59.885 0.051551
59.93 0.0620259
59.975 0.0201931
60.02 0.0449018
60.065 0.0444052
60.11 0.0352315
60.155 0.0394351
60.2 0.038163
60.245 0.01428
60.29 0.00825315
60.335 0.0370561
60.38 0.0345529
60.425 0.0296068
60.47 0.00175437
60.515 0.0108198
60.56 0.0377959
60.605 0.00593993
60.65 0.00833507
60.695 0.0256134
60.74 0.0395689
60.785 -0.0069905
60.83 0.0357794
60.875 0.00520915
60.92 0.0240524
60.965 0.00227151
61.01 0.0146446
61.055 0.043827
61.1 0.0448538
61.145 0.0470914
61.19 0.0462968
61.235 0.110362
61.28 0.116849
61.325 0.180704
61.37 0.25341
61.415 0.366222
61.46 0.441067
61.505 0.595644
61.55 0.701789
61.595 0.845363
61.64 1.00023
61.685 1.09231
61.73 1.11017
61.775 1.05591
61.82 0.945514
61.865 0.900429
61.91 0.613424
61.955 0.474956
62 0.361696
62.045 0.227332
62.09 0.136588
62.135 0.0916393
62.18 0.0640012
62.225 0.0478858
62.27 0.0613576
62.315 0.0501296
62.36 0.0333019
62.405 0.0676343
62.45 0.101724
62.495 0.116865
62.54 0.115857
62.585 0.179816
62.63 0.15287
62.675 0.235614
62.72 0.23986
62.765 0.288248
62.81 0.316595
62.855 0.245422
62.9 0.240059
62.945 0.251345
62.99 0.218897
63.035 0.162277
63.08 0.0662895
63.125 0.0751018
63.17 0.0810188
63.215 0.042938
63.26 0.038948
63.305 0.0244808
63.35 0.0233541
63.395 0.0085979
63.44 -0.00702839
63.485 -0.0121145
63.53 0.0195856
63.575 0.0276479
63.62 0.0318817
63.665 -0.013369
63.71 0.0167605
63.755 0.0269308
63.8 0.0461609
63.845 0.0141216
63.89 0.038623
63.935 0.0390074
63.98 0.0475166
64.025 0.0212733
64.07 0.00280132
64.115 0.0582649
64.16 0.0144916
64.205 -0.0070237
64.25 0.0204331
64.295 0.0428574
64.34 0.00908804
64.385 0.0238309
64.43 0.00552826
64.475 0.0109022
64.52 0.0130479
64.565 0.0278231
64.61 0.00181662
64.655 0.0306446
64.7 0.0151054
64.745 0.00816121
64.79 0.0204157
64.835 0.00438588
64.88 0.0187301
64.925 0.0133045
64.97 0.0235845
65.015 -0.000829207
65.06 0.0355413
65.105 0.0261328
65.15 0.00718387
65.195 0.00546355
65.24 -0.0134025
65.285 -0.00946901
65.33 0.0217734
65.375 0.00746879
65.42 -0.00550322
65.465 -0.00244151
65.51 0.0196067
65.555 -0.00503337
65.6 0.0366087
65.645 -0.00411017
65.69 0.0211357
65.735 -0.00985528
65.78 0.0151332
65.825 0.024502
65.87 0.00586455
65.915 0.0107585
65.96 0.00140588
66.005 0.0102983
66.05 0.00588548
66.095 0.0125424
66.14 0.0121179
66.185 0.0272768
66.23 0.0327767
66.275 0.0477272
66.32 0.0517866
66.365 0.101381
66.41 0.129684
66.455 0.150406
66.5 0.17688
66.545 0.228301
66.59 0.251086
66.635 0.303335
66.68 0.293094
66.725 0.301864
66.77 0.321603
66.815 0.284995
66.86 0.252997
66.905 0.210368
66.95 0.150553
66.995 0.140507
67.04 0.0950355
67.085 0.0634957
67.13 0.047329
67.175 0.0180794
67.22 0.0107255
67.265 -0.00603664
67.31 0.0184827
67.355 0.0339855
67.4 0.00280838
67.445 0.018612
67.49 0.0077421
67.535 0.0165545
67.58 0.00150464
67.625 0.00566668
67.67 -0.00423784
67.715 0.0190877
67.76 -0.00741454
67.805 0.0120432
67.85 0.0137917
67.895 0.0318961
67.94 0.037802
67.985 0.0517689
68.03 0.0819177
68.075 0.0765051
68.12 0.0845531
68.165 0.0964584
68.21 0.121432
68.255 0.14128
68.3 0.121626
68.345 0.127339
68.39 0.111805
68.435 0.107502
68.48 0.0732047
68.525 0.0762953
68.57 0.0593456
68.615 0.0575336
68.66 0.0323954
68.705 0.035708
68.75 0.0120523
68.795 0.0237219
68.84 0.0173092
68.885 0.0355717
68.93 0.0560273
68.975 0.0521152
69.02 0.0446842
69.065 0.0360779
69.11 0.0484459
69.155 0.0263406
69.2 0.0376292
69.245 0.00753103
69.29 0.0243987
69.335 0.0256994
69.38 0.0154465
69.425 -0.00882927
69.47 0.0107439
69.515 -0.00623277
69.56 0.0343363
69.605 0.0128991
69.65 0.0184525
69.695 0.00213268
69.74 -0.00414796
69.785 -0.00161623
69.83 0.0352279
69.875 0.0109393
69.92 0.008661
69.965 0.00763031
70.01 0.012312
70.055 0.0169561
70.1 0.0234684
70.145 0.0207832
70.19 0.0148584
70.235 0.00371784
70.28 0.0134414
70.325 0.0142658
70.37 -0.0100524
70.415 -0.00573077
70.46 0.00252401
70.505 -0.00730678
70.55 0.0152412
70.595 -0.00712607
70.64 0.0171093
70.685 0.0227166
70.73 -0.00827745
70.775 0.0100838
70.82 0.0225089
70.865 0.00815636
70.91 0.0250932
70.955 0.0131587
71 0.0325026
71.045 -0.0063533
71.09 0.0269888
71.135 0.0172369
71.18 0.0142872
71.225 0.00785988
71.27 0.0303527
71.315 0.00313589
71.36 -0.000678031
71.405 0.0251453
71.45 0.0156591
71.495 0.025228
71.54 0.0289627
71.585 0.0194093
71.63 -0.00420219
71.675 0.0191539
71.72 0.019116
71.765 0.00123816
71.81 0.012887
71.855 0.0141249
71.9 0.0191413
71.945 0.00442994
71.99 0.00711353
72.035 -0.00931571
72.08 0.00687489
72.125 0.0208364
72.17 -0.00268517
72.215 0.0204772
72.26 0.0211277
72.305 0.000259377
72.35 0.0201118
72.395 0.023539
72.44 0.00224253
72.485 0.0123707
72.53 0.0156465
72.575 0.0406018
72.62 0.0311741
72.665 0.0747056
72.71 0.0447468
72.755 0.0740232
72.8 0.0959744
72.845 0.100535
72.89 0.134732
72.935 0.109129
72.98 0.10021
73.025 0.129333
73.07 0.123395
73.115 0.150547
73.16 0.114638
73.205 0.100488
73.25 0.0736885
73.295 0.0508185
73.34 0.0483647
73.385 0.0462032
73.43 0.0497253
73.475 0.0501655
73.52 0.0344792
73.565 0.0459092
73.61 0.00964362
73.655 0.0352176
73.7 0.0150253
73.745 0.0251432
73.79 0.0070884
73.835 0.00322931
73.88 0.0177386
73.925 0.0402145
73.97 0.0177337
74.015 0.0165755
74.06 0.0104998
74.105 0.0278725
74.15 0.022781
74.195 0.009108
74.24 0.0240072
74.285 0.0187149
74.33 0.0125621
74.375 0.00438727
74.42 0.0140936
74.465 -0.00141256
74.51 0.00408621
74.525 -0.0179576