File: data/xrd/xy/2019-02-21T16_54_38.714239+00_00_LBL.xy
'Id: "" Comment: "Integrate frame iprodim_02_001.gfrmwith cursor Wedge Cursor #2" Operator: "UC Berkeley" Anode: "Co" Scantype: "TwoTheta" TimePerStep: "300"
14.485 -0.0391856
14.525 -0.0376562
14.565 0.000212109
14.605 0.118285
14.645 0.0369557
14.685 -0.0220477
14.725 0.0182724
14.765 0.0581879
14.805 0.0721015
14.845 0.111748
14.885 0.0907668
14.925 0.108626
14.965 0.104702
15.005 0.0556571
15.045 0.0425163
15.085 0.0883866
15.125 0.117609
15.165 0.0695393
15.205 0.0269354
15.245 0.0151612
15.285 0.0148336
15.325 0.0425976
15.365 0.111745
15.405 0.0930244
15.445 0.0629246
15.485 0.0197715
15.525 0.0795221
15.565 0.0698729
15.605 0.108353
15.645 0.0198132
15.685 0.0394058
15.725 0.027118
15.765 -0.000717935
15.805 0.0377967
15.845 0.0911421
15.885 0.0678844
15.925 0.0671226
15.965 0.0744565
16.005 0.0973095
16.045 0.0106767
16.085 0.0288956
16.125 0.0422844
16.165 -0.00310838
16.205 0.0335741
16.245 0.00436139
16.285 0.07598
16.325 0.0574253
16.365 0.0589861
16.405 0.0416214
16.445 -0.013471
16.485 0.0154329
16.525 0.0130075
16.565 0.053416
16.605 0.0749797
16.645 0.0505091
16.685 0.0866841
16.725 0.0349285
16.765 0.071747
16.805 0.0413823
16.845 0.00929015
16.885 0.0240362
16.925 0.00427233
16.965 0.0589627
17.005 0.0110017
17.045 0.0260476
17.085 0.0231496
17.125 0.0135856
17.165 0.0151963
17.205 0.0278389
17.245 0.0108231
17.285 0.0533459
17.325 0.0570693
17.365 0.0258665
17.405 0.0209619
17.445 0.0368594
17.485 0.0246882
17.525 0.0389921
17.565 0.0138799
17.605 0.0431606
17.645 0.0296557
17.685 0.0188271
17.725 0.0730593
17.765 0.051144
17.805 0.0845177
17.845 0.102033
17.885 0.105593
17.925 0.0969897
17.965 0.051686
18.005 0.0433581
18.045 0.0367784
18.085 0.0592359
18.125 0.0556545
18.165 0.0135995
18.205 0.0124184
18.245 0.0527643
18.285 -0.00639718
18.325 0.0303635
18.365 0.137304
18.405 0.125677
18.445 0.200538
18.485 0.188105
18.525 0.186518
18.565 0.142608
18.605 0.0934631
18.645 0.0452361
18.685 0.0619858
18.725 0.0361587
18.765 0.0666553
18.805 0.0272636
18.845 0.0104111
18.885 0.0498854
18.925 0.0368107
18.965 0.0356242
19.005 0.0919685
19.045 0.0631838
19.085 0.0257691
19.125 0.0651702
19.165 0.0619452
19.205 0.0949769
19.245 0.0661077
19.285 0.0416779
19.325 0.0550549
19.365 0.0677924
19.405 0.062047
19.445 0.00266047
19.485 0.0427426
19.525 0.00844525
19.565 0.0596761
19.605 -0.0105738
19.645 0.037691
19.685 0.0772316
19.725 0.0350437
19.765 0.0785088
19.805 0.0763779
19.845 0.0263546
19.885 0.0701185
19.925 0.0286498
19.965 0.0515287
20.005 0.0435851
20.045 0.0360966
20.085 0.087312
20.125 0.056982
20.165 0.00435342
20.205 0.0827498
20.245 0.0453597
20.285 0.0329339
20.325 0.0550901
20.365 0.0423972
20.405 0.0329621
20.445 0.0866319
20.485 0.0791215
20.525 0.0650986
20.565 0.0623502
20.605 0.0482689
20.645 0.0384126
20.685 0.0503553
20.725 0.0530823
20.765 0.0444798
20.805 0.0603181
20.845 0.0334375
20.885 0.0346736
20.925 0.0434412
20.965 0.043077
21.005 0.0333546
21.045 0.0129202
21.085 0.0252217
21.125 0.0811859
21.165 0.0470596
21.205 0.0254786
21.245 0.0190229
21.285 0.0532293
21.325 0.0136481
21.365 0.00363946
21.405 0.0215238
21.445 0.0167955
21.485 0.0556856
21.525 0.0556819
21.565 0.00912001
21.605 0.000339369
21.645 0.0655532
21.685 -0.0115529
21.725 0.100043
21.765 0.0331631
21.805 0.0747282
21.845 0.0655941
21.885 0.0437323
21.925 0.0465209
21.965 -0.000157719
22.005 0.0526247
22.045 0.0114259
22.085 0.0012316
22.125 0.0467732
22.165 0.0486434
22.205 0.06821
22.245 0.0384717
22.285 0.0711397
22.325 0.044263
22.365 0.0580593
22.405 0.056499
22.445 0.00299617
22.485 0.0151467
22.525 0.0293431
22.565 0.0620141
22.605 0.0247057
22.645 -0.00130662
22.685 0.0639047
22.725 0.0465566
22.765 0.0603032
22.805 0.0424471
22.845 0.042672
22.885 0.0434948
22.925 0.00865405
22.965 0.0672416
23.005 0.0226481
23.045 0.0252629
23.085 0.010354
23.125 0.0579703
23.165 0.0144225
23.205 0.0511033
23.245 0.0537968
23.285 -0.00185827
23.325 0.0255006
23.365 0.0533122
23.405 0.0431557
23.445 0.0441043
23.485 0.0312783
23.525 0.0249208
23.565 0.0840704
23.605 0.0848324
23.645 0.0272298
23.685 0.0949129
23.725 0.0521675
23.765 0.0794054
23.805 0.0493403
23.845 0.000194638
23.885 -0.0168995
23.925 0.0186849
23.965 0.0421454
24.005 0.0284085
24.045 0.0367583
24.085 0.0532877
24.125 0.00443458
24.165 0.030609
24.205 0.048309
24.245 0.0301755
24.285 0.0493645
24.325 0.0097791
24.365 0.0188643
24.405 0.0309233
24.445 0.0270237
24.485 0.0519604
24.525 0.0359924
24.565 0.0256837
24.605 0.0224005
24.645 0.0169774
24.685 0.013545
24.725 0.0120008
24.765 0.0374779
24.805 0.0128344
24.845 0.0285039
24.885 0.0518529
24.925 0.0478432
24.965 0.0311412
25.005 0.00445922
25.045 0.0301038
25.085 0.0470584
25.125 0.0538588
25.165 0.0080328
25.205 0.0562094
25.245 0.0412948
25.285 0.0962647
25.325 0.0548755
25.365 0.0194863
25.405 0.0115602
25.445 0.00345938
25.485 0.0706785
25.525 0.0284348
25.565 0.0402938
25.605 0.00623151
25.645 0.0137757
25.685 0.0319869
25.725 0.0186768
25.765 0.018159
25.805 0.0346418
25.845 0.0586541
25.885 0.0356569
25.925 0.0258703
25.965 0.0243889
26.005 0.0557217
26.045 0.0132228
26.085 0.0379813
26.125 0.0857902
26.165 0.0357842
26.205 0.0562573
26.245 -0.0210141
26.285 0.0197629
26.325 0.0526486
26.365 0.057165
26.405 0.0288947
26.445 0.0288892
26.485 0.0344651
26.525 -0.0276187
26.565 0.0454745
26.605 0.0521281
26.645 0.0157549
26.685 0.0270109
26.725 0.00203455
26.765 0.0156847
26.805 0.0252252
26.845 0.0422879
26.885 0.077578
26.925 0.0285477
26.965 -0.00214206
27.005 0.0396798
27.045 0.027057
27.085 0.0384697
27.125 0.047948
27.165 0.0170895
27.205 0.0447153
27.245 0.0303367
27.285 0.0407176
27.325 0.0227037
27.365 0.0110597
27.405 0.0148359
27.445 0.0520706
27.485 0.0445669
27.525 0.0440543
27.565 0.00534095
27.605 0.0416914
27.645 -0.000255611
27.685 0.0606429
27.725 0.00300968
27.765 0.0371512
27.805 -0.0101815
27.845 0.0109861
27.885 0.0271275
27.925 0.0802992
27.965 0.0244529
28.005 1.86085e-05
28.045 0.0464296
28.085 -0.0137236
28.125 0.0187474
28.165 0.0502727
28.205 0.0332102
28.245 0.00968124
28.285 0.0202015
28.325 0.0427801
28.365 0.0317154
28.405 -0.00215697
28.445 0.0510264
28.485 0.0400618
28.525 0.0554721
28.565 0.0189247
28.605 0.0227498
28.645 0.0457975
28.685 0.109736
28.725 0.192281
28.765 0.188827
28.805 0.188499
28.845 0.0937022
28.885 0.0870384
28.925 0.0130234
28.965 0.0310845
29.005 0.0492215
29.045 0.0161159
29.085 0.0427821
29.125 0.0294743
29.165 -0.000384621
29.205 0.0577043
29.245 0.0515714
29.285 -0.0038142
29.325 0.0284942
29.365 0.0479582
29.405 0.039344
29.445 0.0155299
29.485 -0.00695656
29.525 0.0330853
29.565 0.0465265
29.605 0.0295147
29.645 0.0460908
29.685 0.025466
29.725 0.0490318
29.765 0.0322736
29.805 0.0718653
29.845 0.060889
29.885 0.0768643
29.925 0.19755
29.965 0.265127
30.005 0.567304
30.045 1.29723
30.085 2.34954
30.125 3.52339
30.165 3.58086
30.205 2.85601
30.245 1.99367
30.285 0.995947
30.325 0.384621
30.365 0.145782
30.405 0.0751728
30.445 0.0406483
30.485 0.0380747
30.525 0.0374719
30.565 0.0133775
30.605 0.00109074
30.645 0.0238569
30.685 0.0144924
30.725 0.0066757
30.765 0.0321332
30.805 0.0286573
30.845 0.0522354
30.885 0.0269972
30.925 0.0507282
30.965 0.0476723
31.005 -0.0175593
31.045 -0.00535308
31.085 0.0217047
31.125 0.0133879
31.165 0.0133003
31.205 0.0574781
31.245 -0.00548253
31.285 0.0239308
31.325 0.0117569
31.365 0.0359779
31.405 0.0112955
31.445 0.0229063
31.485 0.0155944
31.525 0.00698105
31.565 0.00276446
31.605 -0.00873808
31.645 0.0244238
31.685 0.035165
31.725 -0.0309445
31.765 -0.004105
31.805 0.0195794
31.845 0.0236341
31.885 0.0209513
31.925 0.0288241
31.965 0.00841628
32.005 0.0172885
32.045 -0.00469571
32.085 -0.0089922
32.125 0.00602408
32.165 0.0297494
32.205 0.00792501
32.245 -0.0113017
32.285 0.00597052
32.325 0.00722152
32.365 0.0285963
32.405 -0.00837977
32.445 0.0240331
32.485 0.0119638
32.525 0.0215335
32.565 0.00815441
32.605 0.0292691
32.645 -0.00956135
32.685 0.00133643
32.725 0.00899643
32.765 0.0562884
32.805 0.0193062
32.845 0.00440834
32.885 0.0185786
32.925 0.00581996
32.965 0.0145868
33.005 0.0446242
33.045 0.00187737
33.085 0.00628879
33.125 0.0117591
33.165 0.00984678
33.205 -0.0204699
33.245 -0.00293324
33.285 -0.00539984
33.325 0.0161249
33.365 -0.00236557
33.405 0.0197732
33.445 -0.0237174
33.485 0.00839525
33.525 0.0272199
33.565 0.00902173
33.605 0.0193435
33.645 0.0329676
33.685 0.0229563
33.725 0.00811755
33.765 0.00572804
33.805 0.00522034
33.845 0.0107281
33.885 0.00367435
33.925 0.00342681
33.965 0.00449512
34.005 0.012213
34.045 0.0161852
34.085 -0.0122019
34.125 0.00576163
34.165 0.0282935
34.205 0.0130388
34.245 0.0272109
34.285 -0.0140759
34.325 0.0139837
34.365 0.0213849
34.405 0.0208107
34.445 -0.00196807
34.485 -0.0242141
34.525 0.0173019
34.565 -0.00176928
34.605 0.0386861
34.645 0.0695058
34.685 0.11529
34.725 0.220321
34.765 0.371028
34.805 0.534018
34.845 0.625186
34.885 0.603584
34.925 0.510287
34.965 0.337817
35.005 0.211763
35.045 0.101607
35.085 0.0745311
35.125 0.0129299
35.165 -0.000883165
35.205 0.0123082
35.245 0.017724
35.285 -0.0180981
35.325 0.0320251
35.365 0.0122145
35.405 -0.00221728
35.445 -0.00306307
35.485 -0.0179551
35.525 0.0173319
35.565 0.0142181
35.605 0.0270367
35.645 0.0132537
35.685 0.0140618
35.725 -0.00785123
35.765 -0.0145888
35.805 -0.00798948
35.845 0.00974709
35.885 0.00574137
35.925 0.00128611
35.965 0.0161608
36.005 -0.00109819
36.045 0.0214978
36.085 0.0376995
36.125 0.0851115
36.165 0.140264
36.205 0.258194
36.245 0.368169
36.285 0.486295
36.325 0.488955
36.365 0.4277
36.405 0.280182
36.445 0.150003
36.485 0.0826926
36.525 0.0525354
36.565 0.0332213
36.605 0.0129234
36.645 0.0212653
36.685 0.015283
36.725 0.0163339
36.765 -4.89142e-05
36.805 0.0163334
36.845 0.0217424
36.885 0.0176358
36.925 -0.0024519
36.965 0.0082554
37.005 0.00437605
37.045 -6.89023e-05
37.085 -0.00505272
37.125 0.0154289
37.165 0.0232007
37.205 0.022262
37.245 0.0359173
37.285 0.0574416
37.325 0.137413
37.365 0.291646
37.405 0.526754
37.445 0.800554
37.485 1.0814
37.525 1.2378
37.565 1.25807
37.605 1.13595
37.645 0.862768
37.685 0.54117
37.725 0.289575
37.765 0.160465
37.805 0.0817592
37.845 0.0377197
37.885 0.00650912
37.925 0.00178845
37.965 0.0326903
38.005 -0.015633
38.045 0.00074634
38.085 -0.00296187
38.125 -0.0245619
38.165 0.0205478
38.205 0.0106128
38.245 0.00762294
38.285 -0.00750645
38.325 0.0101883
38.365 0.0232865
38.405 0.0196269
38.445 0.0140833
38.485 0.0227305
38.525 0.0537181
38.565 0.0968738
38.605 0.11005
38.645 0.0821986
38.685 0.0817567
38.725 0.0618735
38.765 0.0566526
38.805 0.0361362
38.845 0.0114408
38.885 0.00742073
38.925 0.0160924
38.965 -0.00347937
39.005 -0.00557652
39.045 0.00282166
39.085 -0.000833913
39.125 0.017121
39.165 0.0048451
39.205 0.0156301
39.245 -0.00288304
39.285 0.0128857
39.325 0.034713
39.365 -0.00804184
39.405 0.0107039
39.445 -0.021644
39.485 0.0127347
39.525 0.00132733
39.565 0.00805739
39.605 0.0054364
39.645 0.00671225
39.685 0.00153536
39.725 -6.9708e-05
39.765 0.00647534
39.805 0.00936471
39.845 0.000206853
39.885 0.00961334
39.925 -0.00121915
39.965 -0.00162239
40.005 -0.0101696
40.045 0.00842921
40.085 0.013297
40.125 0.0062517
40.165 -0.0116674
40.205 0.0116281
40.245 -0.00127429
40.285 -0.0239841
40.325 0.00546429
40.365 0.021241
40.405 0.0127311
40.445 -0.00253317
40.485 0.00433122
40.525 0.0224612
40.565 0.00781024
40.605 0.0131199
40.645 0.039799
40.685 0.0154565
40.725 0.0288251
40.765 0.0203495
40.805 0.00165025
40.845 0.024835
40.885 0.0239317
40.925 0.028736
40.965 0.00610401
41.005 0.00672021
41.045 0.00767859
41.085 0.0232233
41.125 0.0248644
41.165 0.00794869
41.205 -0.0130367
41.245 0.0175048
41.285 0.0253542
41.325 0.117514
41.365 0.0989359
41.405 0.11755
41.445 0.0999351
41.485 0.0861333
41.525 0.0685823
41.565 0.0587487
41.605 0.0493844
41.645 0.0169858
41.685 0.0086321
41.725 0.0161916
41.765 0.0174558
41.805 0.0108643
41.845 -0.0056693
41.885 -0.00366515
41.925 0.00323532
41.965 -0.0190575
42.005 0.0108538
42.045 0.00325464
42.085 0.0204767
42.125 -0.00423899
42.165 0.0107475
42.205 -0.00653215
42.245 0.0153414
42.285 0.0101103
42.325 -0.00366076
42.365 0.000607038
42.405 0.000175194
42.445 0.0244986
42.485 0.0026909
42.525 0.0126394
42.565 0.0230822
42.605 0.00610613
42.645 -0.00614933
42.685 0.0386074
42.725 -0.00653545
42.765 0.00682274
42.805 -0.0145926
42.845 0.00747258
42.885 0.0399689
42.925 -0.00430531
42.965 -0.00112481
43.005 -0.000814001
43.045 0.0206478
43.085 -0.00606493
43.125 0.0136992
43.165 0.0137132
43.205 -0.00742478
43.245 0.00810026
43.285 0.00267844
43.325 0.0338612
43.365 0.00793279
43.405 0.0160998
43.445 0.0194631
43.485 0.0154279
43.525 -0.00807815
43.565 0.00849058
43.605 0.00679248
43.645 0.0203233
43.685 0.00071521
43.725 0.0322187
43.765 0.021673
43.805 0.0172098
43.845 -0.0236729
43.885 0.0113639
43.925 0.00724978
43.965 0.0301506
44.005 0.0849274
44.045 0.0118947
44.085 0.021722
44.125 0.0030379
44.165 0.0158078
44.205 0.0399301
44.245 0.0205278
44.285 0.0224748
44.325 -0.0105492
44.365 0.0182695
44.405 0.00721571
44.445 0.0162658
44.485 0.0518445
44.525 0.0473229
44.565 0.0959169
44.605 0.139733
44.645 0.231733
44.685 0.276993
44.725 0.342169
44.765 0.327477
44.805 0.306375
44.845 0.214858
44.885 0.135884
44.925 0.111837
44.965 0.0946334
45.005 0.0763725
45.045 0.050309
45.085 0.0652937
45.125 0.0251918
45.165 0.00743363
45.205 0.00717734
45.245 0.0344819
45.285 0.0117622
45.325 0.0214939
45.365 0.014708
45.405 0.0449558
45.445 0.030472
45.485 -0.000463361
45.525 0.0170489
45.565 0.0165845
45.605 0.0353027
45.645 0.0239997
45.685 0.00447379
45.725 0.0167184
45.765 0.0171168
45.805 0.0105658
45.845 0.0133499
45.885 0.0209109
45.925 0.00593262
45.965 0.00198264
46.005 0.00118489
46.045 0.0334025
46.085 0.00562084
46.125 0.0183523
46.165 -0.00776812
46.205 0.00965
46.245 0.00723954
46.285 0.0205199
46.325 -0.0193295
46.365 0.010677
46.405 -0.00970352
46.445 0.0128221
46.485 0.017991
46.525 0.0129159
46.565 -0.00559387
46.605 0.0109779
46.645 0.013037
46.685 0.000184526
46.725 -0.013508
46.765 0.00383224
46.805 0.00942199
46.845 -0.00553666
46.885 -0.0109201
46.925 0.00860178
46.965 0.00967647
47.005 -0.0101508
47.045 -0.0156347
47.085 0.0073189
47.125 0.000180489
47.165 0.012807
47.205 0.0229787
47.245 0.00613721
47.285 0.0177474
47.325 0.00607527
47.365 -0.0178603
47.405 0.0247524
47.445 0.0355372
47.485 0.0259688
47.525 0.0577987
47.565 0.0494504
47.605 0.0971045
47.645 0.134814
47.685 0.16964
47.725 0.168442
47.765 0.174861
47.805 0.184192
47.845 0.174433
47.885 0.272278
47.925 0.408287
47.965 0.556004
48.005 0.734579
48.045 0.830343
48.085 0.932965
48.125 0.899946
48.165 0.824323
48.205 0.821625
48.245 0.736445
48.285 0.680844
48.325 0.534284
48.365 0.357972
48.405 0.215366
48.445 0.150535
48.485 0.0572948
48.525 0.0602482
48.565 0.0325209
48.605 0.0415447
48.645 0.0377589
48.685 0.026143
48.725 0.0140177
48.765 0.0283963
48.805 0.0912899
48.845 0.111016
48.885 0.175268
48.925 0.296657
48.965 0.308088
49.005 0.319614
49.045 0.285215
49.085 0.241293
49.125 0.169638
49.165 0.133146
49.205 0.0937618
49.245 0.08221
49.285 0.052402
49.325 0.0336941
49.365 0.0492733
49.405 0.0382793
49.445 0.0450606
49.485 0.0187656
49.525 0.00412111
49.565 0.0142049
49.605 -0.00131897
49.645 -0.00655236
49.685 0.00279874
49.725 0.0259141
49.765 -0.005878
49.805 0.0108882
49.845 0.00633508
49.885 0.00606654
49.925 -0.0034783
49.965 -7.70206e-05
50.005 0.0256794
50.045 0.0530572
50.085 0.0511469
50.125 0.10943
50.165 0.148139
50.205 0.211742
50.245 0.309889
50.285 0.337127
50.325 0.379033
50.365 0.331931
50.405 0.262995
50.445 0.206188
50.485 0.144279
50.525 0.079962
50.565 0.0535444
50.605 0.0311886
50.645 0.0296293
50.685 -0.00530862
50.725 -0.00392263
50.765 -0.00626482
50.805 -0.00979758
50.845 -0.015568
50.885 -0.0146513
50.925 -0.0174501
50.965 0.00575889
51.005 -0.0174583
51.045 -0.00154356
51.085 -0.0103776
51.125 0.00426001
51.165 -0.0122211
51.205 6.77718e-05
51.245 -0.00426511
51.285 -0.0082471
51.325 -0.00691786
51.365 -0.00145172
51.405 -0.0173124
51.445 -0.0115374
51.485 -0.0090501
51.525 -0.00138002
51.565 -0.00319368
51.605 -0.0200367
51.645 -0.0126329
51.685 -0.00633178
51.725 0.000448054
51.765 -0.00380806
51.805 0.00187627
51.845 0.0230772
51.885 0.0266761
51.925 0.0157109
51.965 0.0405596
52.005 0.0421097
52.045 0.0365197
52.085 0.0411086
52.125 0.0406849
52.165 0.034497
52.205 0.0144327
52.245 0.00737409
52.285 0.013925
52.325 -0.00532249
52.365 0.00631606
52.405 -0.00191625
52.445 -0.00377921
52.485 -0.00194842
52.525 -0.00513124
52.565 -0.00242907
52.605 -0.00469003
52.645 -0.00256169
52.685 0.00105529
52.725 0.0167295
52.765 -0.00237268
52.805 -0.00988993
52.845 0.00468163
52.885 -0.00369704
52.925 -0.0215034
52.965 -0.00727295
53.005 0.00161953
53.045 0.00226617
53.085 0.00715857
53.125 0.0173237
53.165 0.0119022
53.205 -0.000878517
53.245 0.00491686
53.285 -0.0028884
53.325 -0.00659528
53.365 -0.00401609
53.405 -0.000491215
53.445 0.000878905
53.485 -0.00439741
53.525 0.0226639
53.565 0.0167956
53.605 0.0080978
53.645 0.0311422
53.685 0.0573107
53.725 0.076306
53.765 0.0733741
53.805 0.0932863
53.845 0.107759
53.885 0.0670766
53.925 0.0760767
53.965 0.066634
54.005 0.0445801
54.045 0.0222979
54.085 0.0251542
54.125 -4.84076e-05
54.165 0.0045159
54.205 -0.00486917
54.245 0.00392369
54.285 0.002004
54.325 -0.0135145
54.365 -0.00553553
54.405 -0.0136246
54.445 0.0014808
54.485 -0.0160758
54.525 -0.0154327
54.565 -0.00931376
54.605 -0.00174512
54.645 -0.0115241
54.685 -0.0176981
54.725 -0.0110338
54.765 -0.0124563
54.805 0.00446482
54.845 -0.00956073
54.885 -0.00175344
54.925 -0.00720065
54.965 0.00170495
55.005 0.00431184
55.045 0.00212995
55.085 0.00495462
55.125 0.0208257
55.165 0.00619661
55.205 0.0296591
55.245 0.0300512
55.285 0.0230767
55.325 0.0167927
55.365 0.0178782
55.405 0.0222778
55.445 -0.00315427
55.485 0.0101024
55.525 0.000123128
55.565 0.00129399
55.605 0.0201225
55.645 -0.00663196
55.685 -0.0169672
55.725 -0.000107099
55.765 -0.00708132
55.805 0.00343095
55.845 -0.0114898
55.885 0.00685335
55.925 0.00154997
55.965 0.0131175
56.005 0.00142027
56.045 -0.00373102
56.085 0.0115275
56.125 0.00204318
56.165 -0.00157834
56.205 -0.0165254
56.245 0.0059165
56.285 0.00215096
56.325 -0.0182462
56.365 0.0014788
56.405 -0.00969967
56.445 0.010809
56.485 -0.00880683
56.525 0.00479948
56.565 0.0104725
56.605 0.00112865
56.645 0.0170316
56.685 -0.00595185
56.725 0.00557376
56.765 0.000167739
56.805 0.00272777
56.845 0.00320223
56.885 0.0154541
56.925 0.028098
56.965 0.0333043
57.005 0.0414768
57.045 0.0517762
57.085 0.0719801
57.125 0.0387603
57.165 0.0574111
57.205 0.0466631
57.245 0.0539248
57.285 0.0374277
57.325 0.0610387
57.365 0.0389874
57.405 0.0442425
57.445 0.00529676
57.485 0.0379698
57.525 0.0235474
57.565 0.038753
57.605 0.0808467
57.645 0.0841105
57.685 0.092019
57.725 0.12372
57.765 0.13688
57.805 0.17244
57.845 0.192593
57.885 0.18882
57.925 0.227365
57.965 0.228847
58.005 0.27138
58.045 0.234211
58.085 0.213591
58.125 0.146979
58.165 0.106388
58.205 0.0752171
58.245 0.0495541
58.285 0.033314
58.325 0.0343081
58.365 0.021452
58.405 0.0182697
58.445 -0.00730217
58.485 0.00320189
58.525 0.0219658
58.565 0.0195903
58.605 0.010349
58.645 0.0115302
58.685 0.0138459
58.725 0.0119711
58.765 0.00180501
58.805 0.0205946
58.845 0.00737878
58.885 0.0116586
58.925 0.00984215
58.965 -0.00165526
59.005 0.014947
59.045 0.0149668
59.085 0.0100445
59.125 0.0104953
59.165 0.00363736
59.205 0.00056671
59.245 0.0103211
59.285 0.0259357
59.325 -0.000922211
59.365 -0.00489018
59.405 0.000955585
59.445 0.0133558
59.485 -0.00496252
59.525 0.00325463
59.565 -0.000666641
59.605 0.0106105
59.645 0.00768213
59.685 0.0156276
59.725 0.0210341
59.765 0.000494821
59.805 0.0174186
59.845 0.00882327
59.885 0.00991743
59.925 0.00288856
59.965 -8.17851e-05
60.005 0.0107992
60.045 -0.00165744
60.085 -0.0177337
60.125 0.00452224
60.165 -0.00944695
60.205 0.00301514
60.245 0.00534044
60.285 0.0104938
60.325 -0.0112432
60.365 -0.00598937
60.405 0.00772378
60.445 0.0115333
60.485 0.0039695
60.525 0.00911877
60.565 -0.00182323
60.605 0.0248925
60.645 -0.00604087
60.685 0.00500454
60.725 -0.00044937
60.765 0.0161995
60.805 0.0124656
60.845 0.0101481
60.885 0.00176461
60.925 0.00901119
60.965 -0.0156569
61.005 0.013815
61.045 0.0195566
61.085 0.00725415
61.125 -0.014939
61.165 0.0224673
61.205 0.0177445
61.245 0.0182192
61.285 -0.00887138
61.325 -0.00286824
61.365 0.00504993
61.405 0.0189733
61.445 0.0106419
61.485 0.0176982
61.525 0.0297973
61.565 0.0247863
61.605 0.041465
61.645 0.0370915
61.685 0.0428322
61.725 0.047236
61.765 0.0794486
61.805 0.081586
61.845 0.116412
61.885 0.134445
61.925 0.151251
61.965 0.18148
62.005 0.197842
62.045 0.231361
62.085 0.252248
62.125 0.317262
62.165 0.378148
62.205 0.31746
62.245 0.206963
62.285 0.139122
62.325 0.125556
62.365 0.126906
62.405 0.142056
62.445 0.15779
62.485 0.215908
62.525 0.263371
62.565 0.350047
62.605 0.34922
62.645 0.294313
62.685 0.20502
62.725 0.128949
62.765 0.105393
62.805 0.0766533
62.845 0.0822974
62.885 0.0565206
62.925 0.0543927
62.965 0.049762
63.005 0.033516
63.045 0.0318683
63.085 0.0186848
63.125 0.00476959
63.165 0.0155061
63.205 0.00898481
63.245 0.0173082
63.285 -0.00330184
63.325 0.0159368
63.365 0.0065575
63.405 -0.00387077
63.445 0.00283669
63.485 -0.00892396
63.525 0.000320634
63.565 0.00682095
63.605 0.0261581
63.645 -0.00126676
63.685 -0.00253486
63.725 0.00678192
63.765 -0.000768194
63.805 -0.00229932
63.845 -0.0103832
63.885 0.00277945
63.925 -0.000830263
63.965 0.0146409
64.005 -0.00407392
64.045 0.00391088
64.085 0.00134706
64.125 0.00332236
64.165 0.0049327
64.205 0.000942549
64.245 0.00886544
64.285 0.00422904
64.325 0.00458373
64.365 0.00362327
64.405 -0.00763333
64.445 0.00594238
64.485 0.0219247
64.525 0.00565117
64.565 0.0113213
64.605 0.0185917
64.645 -0.000657805
64.685 0.0110964
64.725 0.0216679
64.765 0.0326641
64.805 0.0510149
64.845 0.0427615
64.885 0.0577117
64.925 0.0656015
64.965 0.0672405
65.005 0.102974
65.045 0.116885
65.085 0.14761
65.125 0.123249
65.165 0.139005
65.205 0.111452
65.245 0.0561978
65.285 0.0535361
65.325 0.0452411
65.365 0.0387688
65.405 0.0224251
65.445 0.0118234
65.485 0.0164652
65.525 0.0269235
65.565 0.0086183
65.605 0.0105724
65.645 0.0085373
65.685 0.0115313
65.725 -0.00891319
65.765 0.0177792
65.805 0.0100259
65.845 -0.0114386
65.885 0.0114751
65.925 0.00439193
65.965 0.0146562
66.005 0.0229754
66.045 0.00465506
66.085 -0.00340227
66.125 0.00660166
66.165 0.00444704
66.205 0.0108545
66.245 -0.00544765
66.285 -0.00759771
66.325 0.00501834
66.365 0.00716858
66.405 0.0112854
66.445 0.0223081
66.485 0.00671646
66.525 0.0055013
66.565 0.00970258
66.605 0.00575279
66.645 0.00433663
66.685 0.0102322
66.725 0.0150795
66.765 0.0142463
66.805 -0.00835395
66.845 0.00245648
66.885 -0.00461425
66.925 -0.010277
66.965 -0.00502111
67.005 -0.0182847
67.045 0.0030096
67.085 0.00688365
67.125 0.00306998
67.165 -0.0113375
67.205 -0.0190869