File: data/xrd/xy/2019-06-10T22_05_20.195696+00_00_LBL_F4.xy
'Id: "" Comment: "Integrate frame 06132019_dimethyl_ipropyl_04_002.gfrmwith cursor Wedge Cursor #4" Operator: "UC Berkeley" Anode: "Co" Scantype: "TwoTheta" TimePerStep: "480"
23.26 -0.0293875
23.29 -0.0124837
23.32 0.0149537
23.35 0.0150649
23.38 -0.013175
23.41 0.00411065
23.44 0.00163699
23.47 -0.0110101
23.5 -0.0145455
23.53 -0.00782674
23.56 0.0347894
23.59 -0.0043238
23.62 -0.0132417
23.65 0.00224761
23.68 0.0305801
23.71 -0.00179478
23.74 0.014953
23.77 -0.0272922
23.8 -0.0122534
23.83 -0.00917694
23.86 -0.00303132
23.89 0.00703707
23.92 0.0210298
23.95 0.00632609
23.98 -0.000670416
24.01 0.0191362
24.04 -0.0026815
24.07 -0.0226447
24.1 -0.00530158
24.13 -0.00134963
24.16 0.0494621
24.19 0.0092831
24.22 0.0010073
24.25 0.0511362
24.28 -0.00287115
24.31 0.0510949
24.34 -0.00183293
24.37 -0.0242751
24.4 -0.0251381
24.43 3.67375e-06
24.46 0.0150956
24.49 -0.0198968
24.52 -0.0269928
24.55 0.0210598
24.58 0.0317801
24.61 0.0268419
24.64 -0.0130036
24.67 0.0314596
24.7 0.0100837
24.73 -0.0128852
24.76 0.00203571
24.79 0.00630953
24.82 0.0141904
24.85 0.0265284
24.88 0.00859833
24.91 0.0353877
24.94 0.0248123
24.97 0.0237451
25 0.0560343
25.03 0.0238029
25.06 0.0759784
25.09 0.0553107
25.12 0.0266582
25.15 0.0788596
25.18 0.0551732
25.21 0.0870404
25.24 0.107454
25.27 0.113123
25.3 0.0711963
25.33 0.0677728
25.36 0.0543583
25.39 0.102259
25.42 0.054749
25.45 0.0793837
25.48 0.0633799
25.51 0.0485559
25.54 0.0212706
25.57 0.0472157
25.6 0.050125
25.63 0.078202
25.66 0.0844256
25.69 0.0787072
25.72 0.0504429
25.75 0.081529
25.78 0.0516641
25.81 0.0699075
25.84 0.0582375
25.87 0.0138946
25.9 0.0317009
25.93 -0.00425073
25.96 0.00128156
25.99 0.0137522
26.02 0.00490285
26.05 0.00582715
26.08 0.0161494
26.11 0.0132327
26.14 0.0652397
26.17 0.0160221
26.2 0.0562277
26.23 0.0442589
26.26 0.046536
26.29 0.109663
26.32 0.0955273
26.35 0.11875
26.38 0.124901
26.41 0.0829774
26.44 0.0725831
26.47 0.0565939
26.5 0.0573886
26.53 0.047358
26.56 0.0573262
26.59 0.0519133
26.62 -0.00844273
26.65 0.0114931
26.68 0.0432578
26.71 0.0204166
26.74 0.0266052
26.77 0.0403998
26.8 0.0408375
26.83 0.0540447
26.86 0.0338726
26.89 0.0379137
26.92 0.0364068
26.95 0.0452192
26.98 0.00011959
27.01 0.0635451
27.04 0.0516962
27.07 0.0193363
27.1 0.0132703
27.13 0.0365945
27.16 0.0211041
27.19 0.0756675
27.22 0.0792671
27.25 0.0993077
27.28 0.125113
27.31 0.173607
27.34 0.190909
27.37 0.21289
27.4 0.227609
27.43 0.203379
27.46 0.198821
27.49 0.17919
27.52 0.209528
27.55 0.166528
27.58 0.192634
27.61 0.152748
27.64 0.20788
27.67 0.222269
27.7 0.257563
27.73 0.235248
27.76 0.297484
27.79 0.310867
27.82 0.258766
27.85 0.313992
27.88 0.331286
27.91 0.322622
27.94 0.274393
27.97 0.256758
28 0.217474
28.03 0.186815
28.06 0.214667
28.09 0.194978
28.12 0.195819
28.15 0.176765
28.18 0.158165
28.21 0.170096
28.24 0.171492
28.27 0.172988
28.3 0.169645
28.33 0.197811
28.36 0.186507
28.39 0.191411
28.42 0.156273
28.45 0.206996
28.48 0.178616
28.51 0.111754
28.54 0.0859996
28.57 0.117912
28.6 0.0970375
28.63 0.0930793
28.66 0.121564
28.69 0.156263
28.72 0.14436
28.75 0.131983
28.78 0.154864
28.81 0.187967
28.84 0.246892
28.87 0.32061
28.9 0.372115
28.93 0.405042
28.96 0.44444
28.99 0.486991
29.02 0.511136
29.05 0.500416
29.08 0.424413
29.11 0.405798
29.14 0.384649
29.17 0.382747
29.2 0.379721
29.23 0.395715
29.26 0.349822
29.29 0.386835
29.32 0.349939
29.35 0.355182
29.38 0.334881
29.41 0.296392
29.44 0.289873
29.47 0.250351
29.5 0.19546
29.53 0.183409
29.56 0.189342
29.59 0.146013
29.62 0.15723
29.65 0.16189
29.68 0.101283
29.71 0.12567
29.74 0.0823051
29.77 0.088529
29.8 0.0539245
29.83 0.0844095
29.86 0.0347448
29.89 0.0688774
29.92 0.0507538
29.95 0.0770287
29.98 0.0337664
30.01 0.0401373
30.04 0.0180417
30.07 0.0392444
30.1 0.0474501
30.13 0.0681374
30.16 0.0418854
30.19 0.0259653
30.22 0.0059008
30.25 -0.00451176
30.28 0.0123902
30.31 0.015915
30.34 0.0247262
30.37 0.0159206
30.4 0.0129347
30.43 -0.0112207
30.46 0.0372233
30.49 0.0295153
30.52 0.0454142
30.55 0.0683593
30.58 0.0809842
30.61 0.0947224
30.64 0.100316
30.67 0.116123
30.7 0.155729
30.73 0.157229
30.76 0.183482
30.79 0.186349
30.82 0.185766
30.85 0.205796
30.88 0.196623
30.91 0.203501
30.94 0.185057
30.97 0.196304
31 0.167243
31.03 0.15604
31.06 0.146964
31.09 0.0871339
31.12 0.0856318
31.15 0.0715416
31.18 0.0499104
31.21 0.0401613
31.24 0.0225522
31.27 0.0353289
31.3 0.0284133
31.33 -0.0014793
31.36 0.022295
31.39 0.0130999
31.42 -0.00265046
31.45 0.00574546
31.48 0.0212682
31.51 -0.01318
31.54 0.0101366
31.57 -0.00653778
31.6 -0.0214055
31.63 0.0114019
31.66 -0.0129909
31.69 -0.00891143
31.72 0.00411764
31.75 0.0195161
31.78 -0.00201875
31.81 -0.0150298
31.84 0.00336257
31.87 0.0209261
31.9 -0.00116859
31.93 0.00832291
31.96 0.00775711
31.99 0.000443085
32.02 0.0292117
32.05 0.0295072
32.08 0.0372115
32.11 0.0390361
32.14 0.0637318
32.17 0.0767888
32.2 0.125202
32.23 0.12954
32.26 0.141198
32.29 0.18462
32.32 0.203973
32.35 0.207736
32.38 0.255642
32.41 0.228894
32.44 0.240618
32.47 0.245556
32.5 0.19052
32.53 0.20152
32.56 0.150881
32.59 0.122768
32.62 0.1097
32.65 0.0780859
32.68 0.0693299
32.71 0.0598237
32.74 0.0488834
32.77 0.0551152
32.8 0.0336252
32.83 0.0239316
32.86 0.0237553
32.89 0.0107328
32.92 0.00864969
32.95 0.0287467
32.98 -0.00504982
33.01 -0.0043803
33.04 0.0036382
33.07 -0.00262731
33.1 0.00785975
33.13 0.00836602
33.16 0.00350045
33.19 -0.014084
33.22 -0.000418721
33.25 0.0188181
33.28 -0.00683153
33.31 0.0124274
33.34 0.00843576
33.37 0.0145161
33.4 0.0274864
33.43 0.0374092
33.46 0.0515131
33.49 0.0385096
33.52 0.0611986
33.55 0.0593707
33.58 0.0695961
33.61 0.0771326
33.64 0.0963331
33.67 0.100764
33.7 0.121489
33.73 0.110207
33.76 0.140728
33.79 0.124169
33.82 0.112516
33.85 0.128815
33.88 0.13524
33.91 0.110324
33.94 0.124729
33.97 0.0954993
34 0.0742476
34.03 0.124317
34.06 0.120008
34.09 0.127732
34.12 0.135885
34.15 0.173984
34.18 0.206869
34.21 0.226583
34.24 0.227572
34.27 0.241796
34.3 0.214483
34.33 0.228689
34.36 0.195681
34.39 0.169399
34.42 0.161254
34.45 0.124351
34.48 0.0973065
34.51 0.077395
34.54 0.105611
34.57 0.104552
34.6 0.0813151
34.63 0.112603
34.66 0.108721
34.69 0.112777
34.72 0.126917
34.75 0.12181
34.78 0.139128
34.81 0.134836
34.84 0.130549
34.87 0.137869
34.9 0.152157
34.93 0.132467
34.96 0.147666
34.99 0.137385
35.02 0.135803
35.05 0.130665
35.08 0.117807
35.11 0.115565
35.14 0.0653419
35.17 0.063818
35.2 0.057751
35.23 0.0158812
35.26 0.0472167
35.29 0.0282245
35.32 0.0165921
35.35 0.0390907
35.38 0.0608621
35.41 0.0722878
35.44 0.085607
35.47 0.11259
35.5 0.14225
35.53 0.171601
35.56 0.187644
35.59 0.18978
35.62 0.17042
35.65 0.20993
35.68 0.1738
35.71 0.166973
35.74 0.146878
35.77 0.144502
35.8 0.124649
35.83 0.113355
35.86 0.0895033
35.89 0.0942591
35.92 0.0877991
35.95 0.078632
35.98 0.0624593
36.01 0.0806101
36.04 0.0706736
36.07 0.0496198
36.1 0.0592326
36.13 0.0714637
36.16 0.0286674
36.19 0.0474319
36.22 0.0708494
36.25 0.0305167
36.28 0.0227197
36.31 0.0325062
36.34 0.0328878
36.37 0.0321987
36.4 0.0303958
36.43 0.0350633
36.46 0.0387339
36.49 0.0387866
36.52 0.0378491
36.55 0.0318295
36.58 0.0409817
36.61 0.0318774
36.64 0.0166526
36.67 0.0633073
36.7 0.0682986
36.73 0.0573262
36.76 0.0503793
36.79 0.069727
36.82 0.0880705
36.85 0.0918924
36.88 0.0997844
36.91 0.0917506
36.94 0.108802
36.97 0.107351
37 0.12991
37.03 0.0958868
37.06 0.118497
37.09 0.115597
37.12 0.135983
37.15 0.10792
37.18 0.127668
37.21 0.122148
37.24 0.111758
37.27 0.110686
37.3 0.0716433
37.33 0.0809358
37.36 0.0753625
37.39 0.0716302
37.42 0.0719198
37.45 0.053245
37.48 0.0617761
37.51 0.0272514
37.54 0.0298864
37.57 0.0271907
37.6 0.00705877
37.63 0.0175079
37.66 -0.0021236
37.69 0.0132868
37.72 -0.00280873
37.75 0.00306944
37.78 0.0141814
37.81 -0.0111705
37.84 0.00755064
37.87 -0.0185425
37.9 -0.0147889
37.93 -0.0210577
37.96 -0.000189967
37.99 0.00401221
38.02 -0.00466274
38.05 0.00859809
38.08 -0.00927865
38.11 0.00342224
38.14 0.00856163
38.17 0.0137895
38.2 -0.0234815
38.23 0.00204989
38.26 -0.0250731
38.29 -0.0224114
38.32 -0.0169572
38.35 -0.0219202
38.38 -0.0197678
38.41 -0.0112014
38.44 0.00383493
38.47 -0.00175359
38.5 -0.00532616
38.53 0.0037723
38.56 0.00877294
38.59 -0.00443455
38.62 0.0184616
38.65 0.0218314
38.68 0.0292807
38.71 0.0330879
38.74 0.0328995
38.77 0.0433827
38.8 0.0694543
38.83 0.0766064
38.86 0.0855396
38.89 0.100594
38.92 0.0832889
38.95 0.112465
38.98 0.105471
39.01 0.0796055
39.04 0.0767237
39.07 0.0840564
39.1 0.080102
39.13 0.0733288
39.16 0.0666176
39.19 0.0390217
39.22 0.0284076
39.25 0.0406997
39.28 -0.00166618
39.31 0.0221395
39.34 0.0284691
39.37 -0.00219797
39.4 -0.00533197
39.43 -0.00299781
39.46 0.00568012
39.49 -0.00667955
39.52 -0.0103076
39.55 0.0118596
39.58 -0.00250203
39.61 -0.0210824
39.64 -0.000697293
39.67 -0.0161282
39.7 -0.00229364
39.73 -0.00816106
39.76 -0.00541963
39.79 -0.0217516
39.82 -0.0141144
39.85 -0.018214
39.88 -0.00882805
39.91 -0.00565744
39.94 -0.0203562
39.97 0.0104644
40 0.00188493
40.03 -0.00386949
40.06 0.00327577
40.09 0.0112439
40.12 -0.00658805
40.15 0.0125674
40.18 -0.00736298
40.21 0.00153681
40.24 -0.00101251
40.27 0.00954808
40.3 0.00652884
40.33 0.00963205
40.36 0.0190219
40.39 0.010706
40.42 0.0111252
40.45 0.000572313
40.48 0.0111336
40.51 -0.006096
40.54 -0.00319778
40.57 0.0111781
40.6 -0.0030978
40.63 -0.00164809
40.66 0.0019153
40.69 0.00458422
40.72 -0.0221058
40.75 0.00535354
40.78 0.00295323
40.81 0.000916175
40.84 0.0138493
40.87 0.0188352
40.9 0.00666528
40.93 0.00368058
40.96 0.0137818
40.99 0.00517788
41.02 0.00194057
41.05 0.0317585
41.08 0.022519
41.11 0.0202972
41.14 0.028433
41.17 0.0223054
41.2 0.0195164
41.23 0.050592
41.26 0.0498093
41.29 0.0589939
41.32 0.0589114
41.35 0.0459955
41.38 0.0298346
41.41 0.0492515
41.44 0.0352466
41.47 0.0335865
41.5 0.0209284
41.53 0.0169243
41.56 0.0175984
41.59 0.00111816
41.62 0.00673558
41.65 0.0223128
41.68 0.00119554
41.71 0.00265031
41.74 0.019888
41.77 0.0170801
41.8 0.0300539
41.83 0.00921849
41.86 0.0264133
41.89 0.00459421
41.92 0.00949515
41.95 0.000701175
41.98 0.0162156
42.01 0.014705
42.04 0.0168278
42.07 0.0138018
42.1 0.0136719
42.13 0.0070542
42.16 -7.55925e-05
42.19 -0.0025079
42.22 -0.00680871
42.25 -0.00555251
42.28 0.00447489
42.31 -0.00356873
42.34 -0.00426428
42.37 0.0027338
42.4 0.00226524
42.43 -0.00217532
42.46 0.00493709
42.49 0.00532565
42.52 0.0312519
42.55 0.0100384
42.58 0.00617349
42.61 0.0180998
42.64 -0.00488663
42.67 0.00083661
42.7 -0.000247251
42.73 -0.00228307
42.76 -0.0183825
42.79 -0.00518278
42.82 0.00572622
42.85 -0.0073074
42.88 0.0114578
42.91 0.0108092
42.94 -0.0176915
42.97 0.0172951
43 0.00178823
43.03 0.0224421
43.06 0.0146981
43.09 0.0188197
43.12 0.0384824
43.15 0.00991457
43.18 0.038012
43.21 0.0459583
43.24 0.0272054
43.27 0.050934
43.3 0.0629955
43.33 0.0921173
43.36 0.118668
43.39 0.136172
43.42 0.140155
43.45 0.154824
43.48 0.166148
43.51 0.212776
43.54 0.18137
43.57 0.230927
43.6 0.22066
43.63 0.218075
43.66 0.224165
43.69 0.204887
43.72 0.167752
43.75 0.178003
43.78 0.152777
43.81 0.153627
43.84 0.134403
43.87 0.144433
43.9 0.115193
43.93 0.103928
43.96 0.107352
43.99 0.0816178
44.02 0.0848438
44.05 0.073379
44.08 0.0743309
44.11 0.080873
44.14 0.0943003
44.17 0.077714
44.2 0.0803477
44.23 0.0957555
44.26 0.111308
44.29 0.114129
44.32 0.0879421
44.35 0.100268
44.38 0.10239
44.41 0.107892
44.44 0.0710376
44.47 0.0740791
44.5 0.0770497
44.53 0.0674646
44.56 0.0551214
44.59 0.0543498
44.62 0.041924
44.65 0.0288217
44.68 0.0187978
44.71 0.0403681
44.74 0.0277622
44.77 0.0436805
44.8 0.0136061
44.83 0.0125687
44.86 -0.0069147
44.89 -0.00384096
44.92 0.00905128
44.95 0.0128838
44.98 -0.000605587
45.01 0.01559
45.04 -0.00786227
45.07 -0.00682788
45.1 0.00551742
45.13 0.0153898
45.16 -0.00627883
45.19 0.00901202
45.22 0.00190783
45.25 0.0378016
45.28 0.0145383
45.31 0.0131591
45.34 -0.00157319
45.37 -0.0064162
45.4 0.021571
45.43 -0.0170823
45.46 -0.0190234
45.49 -0.00225344
45.52 -0.00557755
45.55 -0.00642229
45.58 -0.012874
45.61 0.0109446
45.64 -0.0164649
45.67 -0.00165605
45.7 -0.00218639
45.73 -0.00520603
45.76 0.0224395
45.79 0.0264165
45.82 0.0375582
45.85 0.041884
45.88 0.0680487
45.91 0.100343
45.94 0.120004
45.97 0.186624
46 0.234581
46.03 0.294779
46.06 0.404797
46.09 0.413891
46.12 0.453244
46.15 0.435063
46.18 0.420409
46.21 0.395889
46.24 0.388128
46.27 0.338515
46.3 0.304265
46.33 0.243189
46.36 0.224629
46.39 0.183613
46.42 0.164843
46.45 0.155582
46.48 0.115077
46.51 0.13085
46.54 0.105797
46.57 0.0962155
46.6 0.0970946
46.63 0.0954275
46.66 0.117842
46.69 0.0986859
46.72 0.124517
46.75 0.11075
46.78 0.13362
46.81 0.152147
46.84 0.150533
46.87 0.171754
46.9 0.175613
46.93 0.207328
46.96 0.255108
46.99 0.257185
47.02 0.285257
47.05 0.315879
47.08 0.323566
47.11 0.343376
47.14 0.357724
47.17 0.363599
47.2 0.348156
47.23 0.34854
47.26 0.333164
47.29 0.300895
47.32 0.277027
47.35 0.260603
47.38 0.230187
47.41 0.215818
47.44 0.174373
47.47 0.16362
47.5 0.16269
47.53 0.153495
47.56 0.1525
47.59 0.154445
47.62 0.16317
47.65 0.154048
47.68 0.187355
47.71 0.182857
47.74 0.19977
47.77 0.22456
47.8 0.18638
47.83 0.197926
47.86 0.217983
47.89 0.178707
47.92 0.154374
47.95 0.156433
47.98 0.158253
48.01 0.144919
48.04 0.13949
48.07 0.137643
48.1 0.138038
48.13 0.177251
48.16 0.157565
48.19 0.142246
48.22 0.155479
48.25 0.164142
48.28 0.146676
48.31 0.117374
48.34 0.106164
48.37 0.102124
48.4 0.0833394
48.43 0.0510417
48.46 0.0457418
48.49 0.0502427
48.52 0.00914142
48.55 0.0246573
48.58 0.0194951
48.61 0.0326619
48.64 0.0184298
48.67 -0.000331004
48.7 0.00649528
48.73 0.0217549
48.76 -0.00357621
48.79 0.00903545
48.82 -0.00620649
48.85 -0.00884159
48.88 -0.00426295
48.91 0.00721675
48.94 0.00513881
48.97 0.0100116
49 0.000586775
49.03 -0.00608755
49.06 0.00136787
49.09 0.0122892
49.12 0.00847814
49.15 0.0193835
49.18 0.015683
49.21 0.0283689
49.24 0.0231755
49.27 0.0334121
49.3 0.0304541
49.33 0.0329249
49.36 0.0221074
49.39 0.0254639
49.42 0.0139642
49.45 0.00967729
49.48 0.00297191
49.51 0.00206371
49.54 0.00397097
49.57 0.00283263
49.6 0.00736445
49.63 0.00892589
49.66 -0.00606431
49.69 -0.0226326
49.72 0.00128622
49.75 -0.00272828
49.78 0.00707206
49.81 -0.00347204
49.84 -0.0135253
49.87 -0.00843408
49.9 -0.00494204
49.93 0.000891342
49.96 0.00322174
49.99 -0.00957386
50.02 -0.00304207
50.05 -0.0127589
50.08 0.0081448
50.11 -0.00915347
50.14 0.00625659
50.17 0.00704557
50.2 -0.00888125
50.23 0.00163864
50.26 0.000723904
50.29 -0.0200858
50.32 -0.0192808
50.35 0.00595581
50.38 -0.00628199
50.41 -0.0097669
50.44 -0.00661771
50.47 -0.0151414
50.5 -0.0156386
50.53 -0.0068921
50.56 -0.00830594
50.59 -0.0138273
50.62 -0.00269237
50.65 -0.0136496
50.68 -0.0150129
50.71 -0.00950561
50.74 -0.00104462
50.77 -0.00316503
50.8 -0.00870397
50.83 0.00744755
50.86 0.0104389
50.89 0.0172686
50.92 0.0170846
50.95 0.0235817
50.98 0.0143416
51.01 0.0161288
51.04 0.0284512
51.07 0.0127835
51.1 0.00973193
51.13 0.0214185
51.16 0.0173805
51.19 0.00332661
51.22 0.0194158
51.25 0.0111165
51.28 0.0150346
51.31 0.0407544
51.34 -0.000335744
51.37 6.99557e-05
51.4 -0.00370102
51.43 -0.00778572
51.46 -0.0051941
51.49 0.00147043
51.52 -0.00245465
51.55 0.000234287
51.58 -0.00803792
51.61 -0.00575413
51.64 -0.00280418
51.67 -0.00823623
51.7 -0.0179763
51.73 -0.0154303
51.76 -0.0171673
51.79 -0.00881787
51.82 -0.00775043
51.85 -0.0166486
51.88 -0.0118778
51.91 -0.00552405
51.94 -0.00411165
51.97 -0.00815534
52 -0.00262399
52.03 0.00957666
52.06 0.00308485
52.09 0.00622921
52.12 0.0179963
52.15 0.0143715
52.18 0.0175223
52.21 0.0225555
52.24 0.0178504
52.27 0.0177697
52.3 0.0319113
52.33 0.0297535
52.36 0.0243231
52.39 0.0167503
52.42 0.0269219
52.45 0.00606167
52.48 0.0122643
52.51 0.0328454
52.54 0.0308869
52.57 0.0211112
52.6 0.0205369
52.63 0.0342251
52.66 0.0426507
52.69 0.0424577
52.72 0.0606412
52.75 0.0521925
52.78 0.0475601
52.81 0.064738
52.84 0.0770524
52.87 0.0862283
52.9 0.0763273
52.93 0.0708203
52.96 0.0696993
52.99 0.0601803
53.02 0.0605269
53.05 0.0557135
53.08 0.0382193
53.11 0.0293887
53.14 0.0207332
53.17 0.0328572
53.2 0.00515555
53.23 0.00854956
53.26 0.00817131
53.29 0.0106903
53.32 0.00201521
53.35 -0.021536
53.38 0.0025768
53.41 -0.0156255
53.44 -0.00855497
53.47 -0.00246313
53.5 -0.0106239
53.53 -0.00694144
53.56 0.00390791
53.59 -0.00854968
53.62 0.00505588
53.65 -0.00174739
53.68 -0.0110417
53.71 -0.00253653
53.74 0.00253335
53.77 -0.00333953
53.8 -0.00110777
53.83 0.00975798
53.86 -0.00448041
53.89 -0.000803056
53.92 0.00677304
53.95 0.00812081
53.98 -0.000864383
54.01 -0.00954505
54.04 0.0165407
54.07 0.0119805
54.1 0.00651254
54.13 0.019867
54.16 0.016329
54.19 0.0333853
54.22 0.0190449
54.25 0.0358205
54.28 0.0425121
54.31 0.0429341
54.34 0.0460252
54.37 0.0545902
54.4 0.0610994
54.43 0.0820207
54.46 0.0745692
54.49 0.0926565
54.52 0.09745
54.55 0.0917519
54.58 0.0953738
54.61 0.109885
54.64 0.108559
54.67 0.108504
54.7 0.116041
54.73 0.106593
54.76 0.112262
54.79 0.0961291
54.82 0.10848
54.85 0.0934039
54.88 0.0788806
54.91 0.0776439
54.94 0.0458362
54.97 0.069462
55 0.0514088
55.03 0.0515957
55.06 0.0577916
55.09 0.058346
55.12 0.0499828
55.15 0.0392125
55.18 0.0389577
55.21 0.0547677
55.24 0.0478083
55.27 0.0390395
55.3 0.0364982
55.33 0.0458907
55.36 0.0410121
55.39 0.0564402
55.42 0.0600561
55.45 0.0551792
55.48 0.0553756
55.51 0.0359016
55.54 0.0295564
55.57 0.0580486
55.6 0.0570438
55.63 0.0442192
55.66 0.0491905
55.69 0.0384976
55.72 0.0391565
55.75 0.0264191
55.78 0.0237224
55.81 0.0272669
55.84 0.0262082
55.87 0.0128661
55.9 0.0128111
55.93 0.018817
55.96 0.0148764
55.99 0.00807442
56.02 0.00448998
56.05 -0.00811769
56.08 0.00254213
56.11 -0.00507432
56.14 0.00560127
56.17 -0.00170846
56.2 -0.00512575
56.23 0.000902765
56.26 -0.00401885
56.29 0.00752292
56.32 0.0137138
56.35 -0.00946744
56.38 0.00670014
56.41 0.00668453
56.44 0.00159295
56.47 -0.0113415
56.5 0.00621489
56.53 0.00997277
56.56 0.00248017
56.59 -0.00819964
56.62 -0.000234509
56.65 -0.00445464
56.68 -0.00316625
56.71 0.00469301
56.74 0.00473113
56.77 0.00699767
56.8 -0.0113547
56.83 0.00963607
56.86 0.00448951
56.89 -0.00176149
56.92 -0.00103975
56.95 -0.00160735
56.98 -0.0123342
57.01 -0.00376689
57.04 0.0166142
57.07 0.0131064
57.1 0.0137917
57.13 0.0198785
57.16 0.030673
57.19 0.0266526
57.22 0.0242879
57.25 0.0305025
57.28 0.0383355
57.31 0.0436726
57.34 0.0573513
57.37 0.0516909
57.4 0.0558521
57.43 0.0551401
57.46 0.0570007
57.49 0.0511289
57.52 0.053386
57.55 0.0498541
57.58 0.0610419
57.61 0.0679524
57.64 0.0581484
57.67 0.0526107
57.7 0.0412017
57.73 0.0441653
57.76 0.0267951
57.79 0.0201332
57.82 0.0180904
57.85 0.0118457
57.88 0.0315652
57.91 0.0213387
57.94 0.0111992
57.97 0.0159224
58 0.0282194
58.03 0.0155723
58.06 0.0207108
58.09 0.0151871
58.12 0.0385678
58.15 0.0270094
58.18 0.038794
58.21 0.0396581
58.24 0.0367804
58.27 0.0352635
58.3 0.0463551
58.33 0.0339863
58.36 0.0449867
58.39 0.0383724
58.42 0.0399035
58.45 0.0579237
58.48 0.0536386
58.51 0.0575103
58.54 0.0560333
58.57 0.0970932
58.6 0.0703297
58.63 0.0893425
58.66 0.0777168
58.69 0.0917583
58.72 0.0824517
58.75 0.073206
58.78 0.0649156
58.81 0.0707436
58.84 0.0858008
58.87 0.0700921
58.9 0.0728392
58.93 0.0589756
58.96 0.0513376
58.99 0.051367
59.02 0.0554088
59.05 0.0384763
59.08 0.02827
59.11 0.0300864
59.14 0.0380889
59.17 0.0320746
59.2 -0.00993182
59.23 0.0171688
59.26 0.00469219
59.29 0.00599363
59.32 0.00481582
59.35 0.0021823
59.38 0.0103638
59.41 0.0137839
59.44 0.00703805
59.47 0.00593033
59.5 0.00610957
59.53 0.00747482
59.56 0.000712798
59.59 0.00384752
59.62 0.00796247
59.65 0.00817323
59.68 -0.00208948
59.71 0.00409612
59.74 0.0145359
59.77 -0.00457363
59.8 0.00781228
59.83 0.0183569
59.86 0.00281898
59.89 0.0143879
59.92 0.00467248
59.95 -0.00757814
59.98 -0.00333766
60.01 0.0104058
60.04 0.0163346
60.07 0.0144922
60.1 0.00664063
60.13 -0.00127394
60.16 0.00228056
60.19 -0.010227
60.22 0.00948571
60.25 0.0138762
60.28 -0.00885909
60.31 -0.0114089
60.34 0.000514521
60.37 0.0124634
60.4 -0.00837379
60.43 -0.0169716
60.46 0.00732572
60.49 0.00415402
60.52 0.00824737
60.55 -0.00247382
60.58 0.00728805
60.61 0.0132805
60.64 0.00470742
60.67 -0.00381939
60.7 -0.000951363
60.73 0.00366002
60.76 0.0170778
60.79 0.020083
60.82 0.00575692
60.85 -0.0108813
60.88 0.00367167
60.91 -0.00172601
60.94 0.0161212
60.97 -0.00946794
61 0.017546
61.03 0.0157677
61.06 0.0118332
61.09 -0.00393441
61.12 0.0120077
61.15 0.00414848
61.18 0.0119579
61.21 0.0105035
61.24 0.0106084
61.27 0.0213177
61.3 0.00318373
61.33 -0.0123196
61.36 0.00718958
61.39 0.00744323
61.42 -0.00645534
61.45 -0.0191351
61.48 -0.0162538
61.51 -0.0182069
61.54 -0.00797226
61.57 -0.0204283