File: data/xrd/xy/2019-09-05T19_43_09.232228+00_00_LBL_D3.xy
'Id: "" Comment: "Integrate frame Morph_02_001.gfrmwith cursor Wedge Cursor #2" Operator: "UC Berkeley" Anode: "Co" Scantype: "TwoTheta" TimePerStep: "500"
13.82 -0.0270323
13.86 -0.0125684
13.9 0.098139
13.94 0.0622765
13.98 0.0539875
14.02 0.0623493
14.06 0.0674745
14.1 0.0300102
14.14 0.0411903
14.18 0.0332338
14.22 0.0798358
14.26 0.0215667
14.3 0.0519776
14.34 0.0589764
14.38 0.0968515
14.42 0.0744402
14.46 0.0432929
14.5 0.0298739
14.54 0.0571023
14.58 0.0719091
14.62 0.0776181
14.66 0.047855
14.7 0.0774017
14.74 0.0749668
14.78 0.0602173
14.82 0.00022673
14.86 0.0135315
14.9 0.0559129
14.94 0.0867127
14.98 0.0586995
15.02 0.0610776
15.06 0.00394835
15.1 0.0141005
15.14 0.0473292
15.18 0.0344779
15.22 0.0100749
15.26 0.0301672
15.3 -0.0231801
15.34 0.0598493
15.38 0.0376004
15.42 0.0244855
15.46 -0.0200579
15.5 0.0269778
15.54 0.0446192
15.58 0.0338187
15.62 0.0625902
15.66 -0.025726
15.7 0.0205876
15.74 0.020262
15.78 0.029144
15.82 -0.0253345
15.86 0.0403985
15.9 0.0221223
15.94 0.0147754
15.98 0.121632
16.02 0.041089
16.06 0.106995
16.1 0.122857
16.14 0.0436951
16.18 0.0490104
16.22 0.0100123
16.26 0.0151836
16.3 0.0371396
16.34 0.0532572
16.38 0.0403021
16.42 0.0250985
16.46 0.0305337
16.5 0.0322732
16.54 0.0540045
16.58 0.0395424
16.62 0.0237495
16.66 0.0342291
16.7 0.0234458
16.74 -0.0020283
16.78 0.0440571
16.82 0.0150114
16.86 0.0544261
16.9 0.0346282
16.94 0.0716921
16.98 -0.0204338
17.02 0.00944029
17.06 0.00981138
17.1 0.0809834
17.14 -0.0179798
17.18 0.0287961
17.22 0.00574526
17.26 -0.0133714
17.3 0.0325658
17.34 0.0607213
17.38 0.0760417
17.42 0.107517
17.46 0.220323
17.5 0.333289
17.54 0.511153
17.58 0.599277
17.62 0.710069
17.66 0.616309
17.7 0.433963
17.74 0.291875
17.78 0.179468
17.82 0.125294
17.86 0.160179
17.9 0.0827611
17.94 0.0410203
17.98 0.0649266
18.02 0.0598753
18.06 -0.00396032
18.1 0.0316855
18.14 0.0223134
18.18 -0.00623656
18.22 -0.0257747
18.26 0.0351212
18.3 0.000133174
18.34 0.0231545
18.38 0.0366482
18.42 -0.0144181
18.46 0.0194488
18.5 0.0517628
18.54 0.0478262
18.58 0.0274615
18.62 0.0501801
18.66 0.00398308
18.7 0.0618657
18.74 0.0494141
18.78 0.0253602
18.82 0.0481824
18.86 -0.0269622
18.9 0.0389269
18.94 0.00382314
18.98 0.0252954
19.02 0.00910049
19.06 0.0604975
19.1 0.00632369
19.14 0.0206965
19.18 0.0105932
19.22 0.0147978
19.26 0.0260621
19.3 0.00625128
19.34 0.0152505
19.38 0.0211529
19.42 -0.0107671
19.46 -0.000208159
19.5 -0.0184199
19.54 0.0216337
19.58 0.0345016
19.62 0.0239936
19.66 -0.00588463
19.7 0.0198738
19.74 0.00472928
19.78 0.0200925
19.82 0.01726
19.86 0.00493163
19.9 0.00972518
19.94 0.0160714
19.98 0.00472033
20.02 0.00617915
20.06 0.00616885
20.1 0.0307288
20.14 0.115345
20.18 0.0589769
20.22 0.0706112
20.26 0.0491079
20.3 0.0776735
20.34 0.0763869
20.38 0.0496131
20.42 0.0748821
20.46 0.0224075
20.5 0.0047603
20.54 0.021351
20.58 0.0249397
20.62 -0.0243904
20.66 -0.00487777
20.7 -0.0165425
20.74 0.0266641
20.78 0.00910229
20.82 0.0151304
20.86 0.0127994
20.9 0.0223893
20.94 0.00420702
20.98 0.0156131
21.02 0.0201937
21.06 0.0519059
21.1 -0.0268148
21.14 -0.0249902
21.18 0.00823896
21.22 0.0386134
21.26 -0.00321743
21.3 0.0458074
21.34 -0.0133223
21.38 -0.00786559
21.42 0.0322601
21.46 0.0396164
21.5 -0.0178477
21.54 0.0341535
21.58 -0.000874118
21.62 0.035888
21.66 0.0262386
21.7 0.0192279
21.74 0.0525581
21.78 0.0215587
21.82 0.0304266
21.86 0.0348416
21.9 0.0268144
21.94 0.0398026
21.98 0.0413258
22.02 0.058422
22.06 0.0342773
22.1 0.0614201
22.14 0.0386903
22.18 0.0962986
22.22 0.0426237
22.26 0.0251736
22.3 0.0353803
22.34 -0.00322068
22.38 0.0424902
22.42 -0.0126525
22.46 0.0339116
22.5 0.0837629
22.54 0.0862536
22.58 0.0776443
22.62 0.156874
22.66 0.109474
22.7 0.034255
22.74 0.0194628
22.78 0.0160971
22.82 -0.00549425
22.86 0.0274941
22.9 0.0252583
22.94 0.00564924
22.98 0.0403638
23.02 0.00876505
23.06 0.00219862
23.1 0.0719108
23.14 0.0052078
23.18 0.039641
23.22 0.0144664
23.26 0.0348656
23.3 0.000271086
23.34 0.0164756
23.38 0.00744032
23.42 -0.0208309
23.46 0.0192438
23.5 0.0457685
23.54 0.0220267
23.58 0.0296173
23.62 0.0335454
23.66 0.0532583
23.7 0.0545871
23.74 0.0395368
23.78 0.0684766
23.82 -0.0124545
23.86 0.0161466
23.9 0.0219004
23.94 0.0771271
23.98 0.0596249
24.02 0.0745413
24.06 0.0939944
24.1 0.0522362
24.14 0.0553021
24.18 0.0364322
24.22 0.0678353
24.26 0.0857935
24.3 0.0848345
24.34 0.117596
24.38 0.0335383
24.42 0.0280858
24.46 0.0481506
24.5 0.00324354
24.54 0.0151523
24.58 0.00679411
24.62 0.0281812
24.66 0.062473
24.7 0.0124728
24.74 0.0224319
24.78 -0.0206763
24.82 0.0415638
24.86 -0.00847778
24.9 0.00183238
24.94 -0.0115237
24.98 0.0243249
25.02 -0.023214
25.06 0.037887
25.1 0.0586613
25.14 0.0414526
25.18 0.0517047
25.22 0.0279158
25.26 0.0345205
25.3 0.0204268
25.34 0.00154733
25.38 0.0400408
25.42 -0.0269177
25.46 0.0191591
25.5 0.0235006
25.54 0.0740817
25.58 0.105753
25.62 0.135372
25.66 0.141607
25.7 0.136691
25.74 0.133258
25.78 0.152018
25.82 0.0979301
25.86 0.156659
25.9 0.126296
25.94 0.138512
25.98 0.0706356
26.02 0.0981739
26.06 0.0926317
26.1 0.0719371
26.14 0.10701
26.18 0.125114
26.22 0.202392
26.26 0.293216
26.3 0.489785
26.34 0.880973
26.38 1.84949
26.42 3.92613
26.46 7.3185
26.5 11.073
26.54 13.6047
26.58 12.8962
26.62 9.31773
26.66 5.12559
26.7 2.33779
26.74 0.877283
26.78 0.413696
26.82 0.24462
26.86 0.251538
26.9 0.269522
26.94 0.365486
26.98 0.464104
27.02 0.534439
27.06 0.55625
27.1 0.580959
27.14 0.475979
27.18 0.32746
27.22 0.212804
27.26 0.123019
27.3 0.025908
27.34 0.0269748
27.38 0.00926978
27.42 0.0113579
27.46 0.000112819
27.5 0.0690344
27.54 0.0475742
27.58 0.017283
27.62 0.0466848
27.66 0.0420644
27.7 0.0591105
27.74 0.0217715
27.78 0.0341516
27.82 -0.0204784
27.86 0.00528422
27.9 0.0780884
27.94 0.0880658
27.98 0.185246
28.02 0.152163
28.06 0.173664
28.1 0.182997
28.14 0.147519
28.18 0.140533
28.22 0.115971
28.26 0.084467
28.3 0.0658501
28.34 0.129345
28.38 0.171285
28.42 0.19295
28.46 0.216879
28.5 0.235604
28.54 0.245092
28.58 0.370673
28.62 0.439552
28.66 0.46145
28.7 0.486362
28.74 0.419278
28.78 0.297858
28.82 0.200335
28.86 0.0858572
28.9 0.0241504
28.94 0.0678889
28.98 0.00845612
29.02 0.000796343
29.06 0.00920618
29.1 -0.0248685
29.14 0.0659607
29.18 0.024698
29.22 0.0649154
29.26 0.112343
29.3 0.160461
29.34 0.155675
29.38 0.111877
29.42 0.111271
29.46 0.127294
29.5 0.0560771
29.54 0.0316029
29.58 0.0624824
29.62 0.10133
29.66 0.0758064
29.7 0.0656831
29.74 0.0606268
29.78 0.0366316
29.82 0.0156167
29.86 0.0369259
29.9 -0.000111977
29.94 0.0420885
29.98 -0.023166
30.02 0.001016
30.06 -0.0101557
30.1 0.0336962
30.14 0.0548349
30.18 0.0526276
30.22 0.0476886
30.26 0.0943424
30.3 0.163337
30.34 0.225111
30.38 0.211884
30.42 0.167631
30.46 0.110148
30.5 0.0844564
30.54 0.0506412
30.58 0.0317987
30.62 0.0394507
30.66 0.0481545
30.7 0.0342062
30.74 0.0571034
30.78 0.0248892
30.82 0.0343488
30.86 -0.00656935
30.9 -0.0132972
30.94 -0.01177
30.98 0.0136104
31.02 0.0244325
31.06 -0.00638445
31.1 -0.00944824
31.14 0.0237738
31.18 0.00392798
31.22 -0.0127258
31.26 0.0320672
31.3 0.023818
31.34 0.00854523
31.38 0.0845094
31.42 0.118772
31.46 0.197685
31.5 0.282571
31.54 0.271083
31.58 0.294661
31.62 0.279635
31.66 0.237346
31.7 0.176256
31.74 0.155884
31.78 0.263359
31.82 0.344203
31.86 0.493828
31.9 0.632856
31.94 0.704001
31.98 0.661175
32.02 0.522618
32.06 0.434136
32.1 0.285181
32.14 0.204932
32.18 0.144415
32.22 0.130398
32.26 0.153821
32.3 0.210489
32.34 0.36045
32.38 0.581505
32.42 0.816117
32.46 0.918224
32.5 0.866252
32.54 0.671769
32.58 0.445808
32.62 0.273732
32.66 0.151348
32.7 0.095727
32.74 0.118682
32.78 0.162473
32.82 0.195369
32.86 0.241398
32.9 0.357336
32.94 0.429761
32.98 0.479818
33.02 0.424333
33.06 0.387013
33.1 0.364774
33.14 0.329207
33.18 0.29992
33.22 0.24296
33.26 0.186281
33.3 0.156325
33.34 0.0841997
33.38 0.049352
33.42 0.0262697
33.46 -0.00588504
33.5 -0.00519073
33.54 -0.0118912
33.58 0.0236877
33.62 0.0243926
33.66 0.106012
33.7 0.10599
33.74 0.192938
33.78 0.226441
33.82 0.241266
33.86 0.230602
33.9 0.185183
33.94 0.125485
33.98 0.0700058
34.02 0.0582494
34.06 0.0523837
34.1 0.0874067
34.14 0.145165
34.18 0.213582
34.22 0.304196
34.26 0.389996
34.3 0.470827
34.34 0.49429
34.38 0.436717
34.42 0.376403
34.46 0.295473
34.5 0.198493
34.54 0.181386
34.58 0.129419
34.62 0.119833
34.66 0.148849
34.7 0.0963908
34.74 0.107725
34.78 0.102974
34.82 0.105318
34.86 0.0817577
34.9 0.0624399
34.94 0.101687
34.98 0.120407
35.02 0.163098
35.06 0.236904
35.1 0.330817
35.14 0.389786
35.18 0.433062
35.22 0.42844
35.26 0.397852
35.3 0.406624
35.34 0.418231
35.38 0.559112
35.42 0.811869
35.46 1.42157
35.5 2.68021
35.54 4.70586
35.58 7.15452
35.62 9.22101
35.66 9.94226
35.7 9.03063
35.74 6.8316
35.78 4.4743
35.82 2.64527
35.86 1.4863
35.9 1.03864
35.94 0.836315
35.98 0.824073
36.02 0.713264
36.06 0.614246
36.1 0.516381
36.14 0.413532
36.18 0.40227
36.22 0.366543
36.26 0.346454
36.3 0.287643
36.34 0.168914
36.38 0.145985
36.42 0.049793
36.46 0.0286044
36.5 0.0102191
36.54 -0.000492334
36.58 0.00745692
36.62 0.0181774
36.66 0.0231543
36.7 0.0503166
36.74 0.0878441
36.78 0.0985954
36.82 0.0649287
36.86 0.0851992
36.9 0.0348003
36.94 0.0287475
36.98 0.0254819
37.02 0.00778529
37.06 0.0182367
37.1 0.0109074
37.14 0.0083848
37.18 -0.00574183
37.22 -0.0251729
37.26 0.00282902
37.3 0.00038122
37.34 0.00676901
37.38 0.00569454
37.42 0.013606
37.46 0.0454965
37.5 0.0522558
37.54 0.0641187
37.58 0.0772283
37.62 0.074822
37.66 0.0878339
37.7 0.060068
37.74 0.0610916
37.78 0.0773172
37.82 0.0440431
37.86 0.0264505
37.9 0.0278384
37.94 0.0218559
37.98 0.0282038
38.02 0.0205383
38.06 0.0304926
38.1 0.0463139
38.14 0.0657174
38.18 0.0921329
38.22 0.113869
38.26 0.176737
38.3 0.274869
38.34 0.404666
38.38 0.522873
38.42 0.622479
38.46 0.636757
38.5 0.623025
38.54 0.538044
38.58 0.412482
38.62 0.251592
38.66 0.154546
38.7 0.101564
38.74 0.0849759
38.78 0.0234736
38.82 0.0182972
38.86 0.00799021
38.9 -0.0141507
38.94 -0.0013776
38.98 -0.00259891
39.02 -0.0198645
39.06 -0.00221789
39.1 -0.0177474
39.14 0.00512389
39.18 0.0240476
39.22 0.0148298
39.26 0.0227465
39.3 0.0609081
39.34 0.0798786
39.38 0.0818966
39.42 0.0820586
39.46 0.0735005
39.5 0.0459791
39.54 0.00523945
39.58 0.00200178
39.62 -0.0130064
39.66 -0.00554958
39.7 -0.02101
39.74 -0.0219343
39.78 0.0017179
39.82 -0.0127272
39.86 -0.01234
39.9 0.0154174
39.94 0.0584493
39.98 0.0886288
40.02 0.123745
40.06 0.199174
40.1 0.277061
40.14 0.336059
40.18 0.33603
40.22 0.31341
40.26 0.26048
40.3 0.183833
40.34 0.157477
40.38 0.128058
40.42 0.115688
40.46 0.117093
40.5 0.176345
40.54 0.220829
40.58 0.236235
40.62 0.248409
40.66 0.242153
40.7 0.186779
40.74 0.136941
40.78 0.0844369
40.82 0.0668875
40.86 0.0663645
40.9 0.0821838
40.94 0.119539
40.98 0.104361
41.02 0.12859
41.06 0.168227
41.1 0.156841
41.14 0.168213
41.18 0.131695
41.22 0.0921363
41.26 0.0455758
41.3 0.0380697
41.34 0.0287035
41.38 0.0329984
41.42 0.0139813
41.46 -0.000452342
41.5 0.0039172
41.54 0.000911966
41.58 0.0100161
41.62 -0.00840883
41.66 -0.0128478
41.7 -0.00769632
41.74 -0.0113349
41.78 0.00427297
41.82 0.0146889
41.86 0.00229824
41.9 -0.0175175
41.94 0.0100055
41.98 0.00828322
42.02 0.00618546
42.06 0.0365801
42.1 0.0156233
42.14 -0.0170984
42.18 -0.0051
42.22 0.00465513
42.26 -0.00850556
42.3 -0.00569908
42.34 0.0129124
42.38 0.0485862
42.42 0.0732451
42.46 0.0704016
42.5 0.106635
42.54 0.14859
42.58 0.239142
42.62 0.266532
42.66 0.285224
42.7 0.272729
42.74 0.231434
42.78 0.172253
42.82 0.101925
42.86 0.0672395
42.9 0.0574172
42.94 0.0158177
42.98 0.0187075
43.02 0.0183026
43.06 0.018535
43.1 0.0272803
43.14 0.0032033
43.18 0.030005
43.22 0.0162623
43.26 0.0422666
43.3 0.0326351
43.34 0.0412421
43.38 0.073275
43.42 0.0905087
43.46 0.102352
43.5 0.0941365
43.54 0.0859889
43.58 0.0999113
43.62 0.125973
43.66 0.107964
43.7 0.0579827
43.74 0.050869
43.78 0.0537926
43.82 0.0406091
43.86 0.0918073
43.9 0.0962629
43.94 0.142043
43.98 0.168019
44.02 0.186599
44.06 0.258221
44.1 0.307144
44.14 0.383053
44.18 0.405196
44.22 0.389017
44.26 0.312222
44.3 0.295911
44.34 0.195805
44.38 0.123685
44.42 0.08349
44.46 0.0620777
44.5 0.0564874
44.54 0.0186513
44.58 0.0283017
44.62 0.0637454
44.66 0.0641302
44.7 0.101274
44.74 0.137584
44.78 0.185963
44.82 0.253828
44.86 0.310921
44.9 0.450068
44.94 0.542947
44.98 0.621523
45.02 0.633955
45.06 0.657862
45.1 0.525706
45.14 0.413681
45.18 0.234257
45.22 0.160985
45.26 0.109325
45.3 0.0476204
45.34 0.0392918
45.38 0.0318042
45.42 0.0241349
45.46 0.00672369
45.5 0.0338373
45.54 -0.0060911
45.58 0.00529951
45.62 0.00165913
45.66 -0.0239154
45.7 0.0189517
45.74 -0.0152063
45.78 0.0108033
45.82 0.0313617
45.86 0.0130565
45.9 0.0159925
45.94 -0.00987543
45.98 -0.00323742
46.02 0.0102834
46.06 0.00687373
46.1 -0.0175312
46.14 -0.00400474
46.18 0.00511282
46.22 0.0221532
46.26 0.024066
46.3 0.0581528
46.34 0.0787864
46.38 0.0780427
46.42 0.0879105
46.46 0.103521
46.5 0.103756
46.54 0.0980254
46.58 0.131885
46.62 0.167713
46.66 0.165629
46.7 0.225708
46.74 0.284194
46.78 0.325017
46.82 0.332641
46.86 0.365406
46.9 0.343181
46.94 0.326006
46.98 0.261152
47.02 0.226297
47.06 0.182591
47.1 0.120163
47.14 0.114884
47.18 0.0745107
47.22 0.0281907
47.26 0.028858
47.3 0.00723881
47.34 0.0128383
47.38 0.00847819
47.42 -0.0118247
47.46 0.00346835
47.5 0.0253593
47.54 0.0331881
47.58 0.0100847
47.62 0.0112249
47.66 -0.0115922
47.7 -0.0181747
47.74 0.0163535
47.78 -0.0076009
47.82 -0.01398
47.86 -0.0178839
47.9 -0.0111766
47.94 0.00923606
47.98 0.0085952
48.02 0.0171427
48.06 -0.00469128
48.1 -0.000723849
48.14 0.0227687
48.18 0.042293
48.22 0.0361948
48.26 0.0723983
48.3 0.0460861
48.34 0.0455991
48.38 0.0393405
48.42 0.0343853
48.46 0.0397921
48.5 0.040226
48.54 0.0498626
48.58 0.0736152
48.62 0.0761659
48.66 0.0930566
48.7 0.0687779
48.74 0.121988
48.78 0.117359
48.82 0.145078
48.86 0.127132
48.9 0.129075
48.94 0.115405
48.98 0.0852713
49.02 0.0665597
49.06 0.0732935
49.1 0.051784
49.14 0.0373428
49.18 0.0451286
49.22 0.0534068
49.26 0.0420357
49.3 0.0373312
49.34 0.0480404
49.38 0.0544655
49.42 0.0488043
49.46 0.0592724
49.5 0.0493468
49.54 0.0528791
49.58 0.054782
49.62 0.0740312
49.66 0.0719597
49.7 0.0495495
49.74 0.0663985
49.78 0.0593597
49.82 0.0664808
49.86 0.0767098
49.9 0.0698188
49.94 0.0950015
49.98 0.0846587
50.02 0.0865362
50.06 0.0851688
50.1 0.075998
50.14 0.0465642
50.18 0.035901
50.22 0.0260965
50.26 -0.000515892
50.3 0.000230121
50.34 -0.0131537
50.38 -0.00519955
50.42 0.00430683
50.46 -0.00888287
50.5 -0.0135395
50.54 0.00623289
50.58 0.0168094
50.62 0.00153349
50.66 0.025095
50.7 0.0280189
50.74 0.0507711
50.78 0.0649947
50.82 0.0536985
50.86 0.0949606
50.9 0.133021
50.94 0.145086
50.98 0.177543
51.02 0.218398
51.06 0.229987
51.1 0.249574
51.14 0.251046
51.18 0.200862
51.22 0.161682
51.26 0.133641
51.3 0.0909547
51.34 0.053213
51.38 0.0238953
51.42 0.00484787
51.46 -0.009071
51.5 0.00068468
51.54 -0.0196035
51.58 0.00665537
51.62 0.00149697
51.66 0.019143
51.7 0.0535091
51.74 0.056705
51.78 0.0559676
51.82 0.0642467
51.86 0.0718265
51.9 0.0600874
51.94 0.050229
51.98 0.0458579
52.02 0.0699275
52.06 0.063958
52.1 0.0632448
52.14 0.0807678
52.18 0.069044
52.22 0.0779216
52.26 0.0769857
52.3 0.0970861
52.34 0.0945341
52.38 0.085597
52.42 0.0836459
52.46 0.053423
52.5 0.0548634
52.54 0.0372922
52.58 0.0168222
52.62 0.0164676
52.66 0.0121876
52.7 -0.00339815
52.74 0.00428231
52.78 0.00601458
52.82 0.00533551
52.86 0.000272021
52.9 -0.00802668
52.94 -0.0144303
52.98 0.00691047
53.02 0.00298793
53.06 -0.000869777
53.1 0.0135772
53.14 0.0213373
53.18 0.0197807
53.22 0.0206189
53.26 0.0399615
53.3 0.0476674
53.34 0.0380205
53.38 0.0294806
53.42 0.0207561
53.46 0.022397
53.5 0.0232896
53.54 0.0117996
53.58 0.00420306
53.62 -0.00649471
53.66 0.00746792
53.7 0.0072211
53.74 -0.00568593
53.78 0.0147663
53.82 -0.00674024
53.86 0.0158367
53.9 0.0301025
53.94 0.0191192
53.98 0.0332743
54.02 0.0290415
54.06 0.0461963
54.1 0.0500769
54.14 0.0577475
54.18 0.0469995
54.22 0.0476332
54.26 0.0295219
54.3 0.0309291
54.34 0.0119181
54.38 -0.00241515
54.42 0.0152653
54.46 0.0300445
54.5 0.0551666
54.54 0.0534
54.58 0.0772297
54.62 0.11025
54.66 0.0983853
54.7 0.118481
54.74 0.13308
54.78 0.109859
54.82 0.110196
54.86 0.0955174
54.9 0.0631586
54.94 0.0556962
54.98 0.0215786
55.02 0.0241009
55.06 0.0172723
55.1 0.0166755
55.14 0.0109373
55.18 0.00559201
55.22 -0.00970737
55.26 0.00913125
55.3 -0.00733098
55.34 -0.00332841
55.38 0.0369712
55.42 0.0211462
55.46 0.0353731
55.5 0.0616531
55.54 0.0751985
55.58 0.118527
55.62 0.135018
55.66 0.153634
55.7 0.193027
55.74 0.207144
55.78 0.261774
55.82 0.298159
55.86 0.316606
55.9 0.315569
55.94 0.307185
55.98 0.267981
56.02 0.214506
56.06 0.173286
56.1 0.129689
56.14 0.127431
56.18 0.0631903
56.22 0.0531502
56.26 0.0490626
56.3 0.0213957
56.34 0.0270091
56.38 0.0295153
56.42 0.00467551
56.46 0.00789954
56.5 0.00593857
56.54 0.0271675
56.58 0.0384685
56.62 0.0211786
56.66 -0.00925755
56.7 -0.00227613
56.74 0.0250081
56.78 0.00421061
56.82 0.00701849
56.86 0.000419438
56.9 0.0199577
56.94 -0.00463056
56.98 0.013552
57.02 -0.00137713
57.06 -0.00922815
57.1 -0.00395182
57.14 0.00754187
57.18 0.0103131
57.22 -0.0123678
57.26 0.0124851
57.3 0.00609438
57.34 -0.00135077
57.38 0.0157704
57.42 0.0389479
57.46 0.0344779
57.5 0.0104561
57.54 0.0504198
57.58 0.0594902
57.62 0.0833822
57.66 0.118716
57.7 0.0839667
57.74 0.0985383
57.78 0.0867252
57.82 0.0714729
57.86 0.0917612
57.9 0.0646779
57.94 0.0874234
57.98 0.0609377
58.02 0.0781657
58.06 0.0791916
58.1 0.0563198
58.14 0.0587187
58.18 0.0558214
58.22 0.0768296
58.26 0.0844733
58.3 0.0776475
58.34 0.0473467
58.38 0.0623083
58.42 0.059088
58.46 0.0654625
58.5 0.0379461
58.54 0.045343
58.58 0.0314376
58.62 0.0337234
58.66 0.0215828
58.7 0.0223083
58.74 0.0198213
58.78 0.0155819
58.82 0.00780504
58.86 0.0420064
58.9 0.0311924
58.94 0.0442428
58.98 0.0391989
59.02 0.0270344
59.06 0.0393738
59.1 0.00972767
59.14 0.00565337
59.18 0.0123825
59.22 0.0412233
59.26 0.0147864
59.3 0.00154206
59.34 0.00327131
59.38 0.00938824
59.42 0.00899624
59.46 0.0170075
59.5 0.0194607
59.54 -0.0015594
59.58 0.0141211
59.62 0.00725819
59.66 0.0122433
59.7 0.0227508
59.74 0.0227868
59.78 0.00715783
59.82 -0.00769483
59.86 0.0294394
59.9 0.0322157
59.94 0.0103242
59.98 0.00502229
60.02 0.0115109
60.06 0.0113121
60.1 -0.0133932
60.14 0.0104561
60.18 0.00824256
60.22 0.0289781
60.26 0.0164099
60.3 -0.00360272
60.34 0.0102997
60.38 0.00148581
60.42 -0.0132295
60.46 0.0108008
60.5 -0.0160983
60.54 0.0166359
60.58 0.00691179
60.62 0.0251852
60.66 -0.0132892
60.7 0.00611688
60.74 0.0244621
60.78 -0.0108883
60.82 -0.00909975
60.86 -0.000889314
60.9 0.00556205
60.94 0.0234195
60.98 0.0397527
61.02 0.0397909
61.06 0.0599913
61.1 0.0395872
61.14 0.0664795
61.18 0.082853
61.22 0.0972107
61.26 0.106287
61.3 0.108461
61.34 0.117859
61.38 0.151986
61.42 0.127139
61.46 0.121993
61.5 0.160901
61.54 0.120368
61.58 0.126814
61.62 0.0996025
61.66 0.0705727
61.7 0.0314248
61.74 0.0123268
61.78 0.016305
61.82 0.0126437
61.86 0.00657204
61.9 0.0160373
61.94 0.00235005
61.98 0.00505795
62.02 0.0209801
62.06 0.00223606
62.1 -0.0107357
62.14 0.0223237
62.18 0.0119584
62.22 0.0337209
62.26 0.0131847
62.3 0.0159823
62.34 0.0231034
62.38 0.0301983
62.42 0.0512713
62.46 0.0418111
62.5 0.0435304
62.54 0.0294461
62.58 0.0255708
62.62 0.0358288
62.66 0.0577324
62.7 0.0353538
62.74 0.0308412
62.78 0.015307
62.82 0.0214173
62.86 0.0218161
62.9 0.013352
62.94 0.033996
62.98 0.0281141
63.02 0.0335913
63.06 0.0280634
63.1 0.0401826
63.14 0.0163038
63.18 0.0305744
63.22 0.039966
63.26 0.0501486
63.3 0.0602454
63.34 0.0519894
63.38 0.0560855
63.42 0.0462214
63.46 0.0511066
63.5 0.0402212
63.54 0.0356209
63.58 0.0287478
63.62 0.0512343
63.66 0.03139
63.7 0.0189036
63.74 0.0110521
63.78 0.00994946
63.82 0.000990382
63.86 0.0064148
63.9 0.0236455
63.94 -0.0113515
63.98 0.00669587
64.02 -0.00675151
64.06 0.0145062
64.1 0.0122706
64.14 0.0244638
64.18 0.0406628
64.22 0.039673
64.26 0.0291534
64.3 0.0549087
64.34 0.0526365
64.38 0.0646427
64.42 0.0806638
64.46 0.118685
64.5 0.162618
64.54 0.256467
64.58 0.34232
64.62 0.455556
64.66 0.446489
64.7 0.435572
64.74 0.380461
64.78 0.371374
64.82 0.361935
64.86 0.361053
64.9 0.345029
64.94 0.321248
64.98 0.279505
65.02 0.220753
65.06 0.181932
65.1 0.158727
65.14 0.102281
65.18 0.0804556
65.22 0.0351876
65.26 0.0314584
65.3 -0.0185309
65.34 0.00411005
65.38 0.00160505
65.42 -0.00472899
65.46 0.00202244
65.5 0.00111516
65.54 -0.00112802
65.58 0.0147099
65.62 0.0209756
65.66 0.0101254
65.7 0.0167283
65.74 0.0342491
65.78 0.0231107
65.82 0.0105323
65.86 0.0240226
65.9 0.0517506
65.94 0.0687003
65.98 0.0630144
66.02 0.050925
66.06 0.077966
66.1 0.0641515
66.14 0.0930611
66.18 0.0649362
66.22 0.0785112
66.26 0.0962027
66.3 0.0824271
66.34 0.0802376
66.38 0.0671372
66.42 0.0451244
66.46 0.0572274
66.5 0.0236221
66.54 0.025294
66.58 0.010536
66.62 -0.00670554
66.66 0.00172178
66.7 -0.0057281
66.74 -0.00745422
66.78 -0.0107418
66.82 -0.00354161
66.86 -0.00655932
66.9 -0.0146878
66.94 -0.00687028
66.98 0.00124279
67.02 -0.00695858
67.06 0.0147759
67.1 0.0233366
67.14 0.0149626
67.18 0.00640382
67.22 0.0344132
67.26 0.0118885
67.3 0.00218511
67.34 -0.00118513
67.38 0.0177882
67.42 0.0132604
67.46 0.0104948
67.5 0.0322721
67.54 0.0366266
67.58 0.0373503
67.62 0.00988164
67.66 0.0539722
67.7 0.0263679
67.74 0.0261259
67.78 0.0489606
67.82 0.0671226
67.86 0.0612066
67.9 0.0671006
67.94 0.0942778
67.98 0.0822524
68.02 0.0777506
68.06 0.087797
68.1 0.0926858
68.14 0.0958811
68.18 0.0934604
68.22 0.0920245
68.26 0.10076
68.3 0.0911276
68.34 0.109276
68.38 0.0709425
68.42 0.0920833
68.46 0.0396325
68.5 0.040768
68.54 0.0401922
68.58 0.0180658
68.62 0.0145505
68.66 0.00176375
68.7 -0.00700179
68.74 -0.00528018
68.78 0.00724862
68.82 0.012773
68.86 -0.00912766
68.9 0.0148561
68.94 -0.008194
68.98 0.0146418
69.02 0.00728539
69.06 0.0160291
69.1 0.00834988
69.14 0.013023
69.18 -0.0129845
69.22 0.00609008
69.26 -0.00229713
69.3 0.0103718
69.34 -0.00550636
69.38 -0.00020202
69.42 0.0144653
69.46 0.00420143
69.5 0.0261039
69.54 0.0243459
69.58 0.0287613
69.62 0.0248493
69.66 0.0231276
69.7 0.00766125
69.74 0.018066
69.78 0.0207456
69.82 0.031285
69.86 0.0097942
69.9 0.0247625
69.94 0.00761297
69.98 -0.0012488
70.02 0.00315355
70.06 0.0091229
70.1 0.0114226
70.14 -0.00332257
70.18 0.0010506
70.22 -0.0016709
70.26 -0.000184945
70.3 0.00314634
70.34 -0.00452131
70.38 0.00732626
70.42 0.00672362
70.46 -0.00474391
70.5 -0.00851018
70.54 0.0017991
70.58 -0.0029533
70.62 -0.00848841
70.66 -0.00569078
70.7 -0.0188043
70.74 0.013942
70.78 -0.00881132
70.82 0.00847
70.86 -0.00781772
70.9 -0.00440393
70.94 0.0175268
70.98 0.034969
71.02 0.0322274
71.06 0.0416419
71.1 0.0660684
71.14 0.10743
71.18 0.0892849
71.22 0.102382
71.26 0.138868
71.3 0.141996
71.34 0.141559
71.38 0.176082
71.42 0.176891
71.46 0.187444
71.5 0.202633
71.54 0.204238
71.58 0.183244
71.62 0.173849
71.66 0.161889
71.7 0.144887
71.74 0.129151
71.78 0.0955142
71.82 0.0610436
71.86 0.0442506
71.9 0.0563272
71.94 0.0346854
71.98 0.0154483
72.02 -0.00266358
72.06 -0.0192509
72.065 -0.0197511