File: data/xrd/xy/2019-05-29T19_49_43.354126+00_00_LBL_A1.xy
'Id: "" Comment: "Integrate frame 060320190_03_002.gfrmwith cursor Wedge Cursor #3" Operator: "UC Berkeley" Anode: "Co" Scantype: "TwoTheta" TimePerStep: "400"
14.33 -0.0313655
14.365 -0.0153656
14.4 -0.0209714
14.435 0.0209536
14.47 0.0528095
14.505 0.0249969
14.54 0.0493264
14.575 0.0561399
14.61 0.132368
14.645 0.146621
14.68 0.113461
14.715 0.12623
14.75 0.103999
14.785 0.0912509
14.82 0.0795362
14.855 0.111165
14.89 0.0568047
14.925 0.0691187
14.96 0.0958895
14.995 0.043345
15.03 0.0582716
15.065 0.0809958
15.1 0.00634864
15.135 0.0606884
15.17 -0.00278303
15.205 -0.030427
15.24 0.0290568
15.275 0.0592686
15.31 0.0537008
15.345 0.05274
15.38 0.0473846
15.415 0.0274029
15.45 0.088593
15.485 0.0413596
15.52 0.0334616
15.555 -0.0119928
15.59 0.0696282
15.625 0.0675293
15.66 0.055406
15.695 0.0501169
15.73 0.0296972
15.765 0.0398351
15.8 0.0438826
15.835 0.0432471
15.87 0.0164185
15.905 0.0562615
15.94 0.0551084
15.975 0.0417158
16.01 0.0647032
16.045 0.0380643
16.08 0.00658506
16.115 0.0255624
16.15 0.0598085
16.185 0.0512714
16.22 0.0910612
16.255 0.0437331
16.29 0.0604686
16.325 0.0636792
16.36 0.0193494
16.395 0.00550699
16.43 0.0373099
16.465 0.0285692
16.5 0.0391543
16.535 0.0569164
16.57 0.0202884
16.605 0.0269861
16.64 0.0289606
16.675 0.0291279
16.71 0.0689778
16.745 0.0286688
16.78 0.0428317
16.815 0.032703
16.85 0.0219597
16.885 0.0410007
16.92 0.0789642
16.955 0.0266551
16.99 0.0553349
17.025 0.0564774
17.06 0.116458
17.095 0.0697152
17.13 0.0701002
17.165 -0.00112919
17.2 0.0230983
17.235 -0.000495541
17.27 0.0195338
17.305 0.0277521
17.34 0.013126
17.375 0.00213517
17.41 0.0399262
17.445 0.0260803
17.48 0.0659654
17.515 0.0399291
17.55 0.0688807
17.585 0.0438718
17.62 0.0784992
17.655 0.0269821
17.69 0.0570942
17.725 0.0597101
17.76 -0.0244793
17.795 0.0180518
17.83 0.0861818
17.865 0.0722318
17.9 0.0306487
17.935 0.0187559
17.97 0.00622957
18.005 -0.0194114
18.04 0.0313898
18.075 0.0656913
18.11 0.0491597
18.145 0.068577
18.18 0.072375
18.215 0.0567249
18.25 0.0772674
18.285 0.023565
18.32 0.0167493
18.355 0.0571629
18.39 0.0652829
18.425 0.0789158
18.46 0.134575
18.495 0.105884
18.53 0.102405
18.565 0.0582673
18.6 0.063955
18.635 0.0830047
18.67 0.099702
18.705 0.0901757
18.74 0.0611193
18.775 0.0656134
18.81 0.0189808
18.845 0.0451715
18.88 0.0393384
18.915 0.0504679
18.95 0.0945218
18.985 0.0281973
19.02 0.0343999
19.055 0.0470875
19.09 -0.00781673
19.125 0.0266471
19.16 0.0882889
19.195 0.00876353
19.23 0.0581616
19.265 0.0951161
19.3 0.0780169
19.335 0.10181
19.37 0.0950501
19.405 0.0241437
19.44 0.0707046
19.475 0.0818449
19.51 0.0611726
19.545 0.11282
19.58 0.0812633
19.615 0.101699
19.65 0.0525119
19.685 0.0509771
19.72 0.0505125
19.755 0.0448798
19.79 0.0906696
19.825 0.0464535
19.86 0.0350277
19.895 0.0780685
19.93 0.0456199
19.965 0.076989
20 0.0554596
20.035 0.070965
20.07 0.0696669
20.105 0.0540409
20.14 0.0563975
20.175 0.0468128
20.21 0.0426902
20.245 0.0366503
20.28 0.080076
20.315 0.0705409
20.35 0.0997965
20.385 0.0552584
20.42 0.0556709
20.455 0.0359306
20.49 0.0288182
20.525 0.0498752
20.56 0.0851773
20.595 0.0437459
20.63 0.0536272
20.665 0.0255037
20.7 0.0793375
20.735 0.0581955
20.77 0.0283238
20.805 0.0829509
20.84 0.0460454
20.875 0.05317
20.91 0.052399
20.945 0.0251505
20.98 0.0679759
21.015 0.0725692
21.05 0.0378284
21.085 0.0473794
21.12 0.0578106
21.155 0.098426
21.19 0.0715421
21.225 0.0747953
21.26 0.0826569
21.295 0.0894966
21.33 0.0646635
21.365 0.0407051
21.4 0.0543104
21.435 0.016957
21.47 0.0241609
21.505 0.00201971
21.54 0.0258697
21.575 0.044834
21.61 0.0532546
21.645 0.0531035
21.68 0.0636785
21.715 0.0494832
21.75 0.0380243
21.785 0.0667197
21.82 0.0688284
21.855 -0.00193402
21.89 0.0370495
21.925 0.0313024
21.96 0.0179256
21.995 0.0683677
22.03 -0.00232911
22.065 0.0115571
22.1 0.00500991
22.135 0.0367967
22.17 0.047245
22.205 0.0456501
22.24 0.0250231
22.275 0.0626887
22.31 0.0231569
22.345 0.0365376
22.38 0.0535844
22.415 0.047447
22.45 0.0130499
22.485 0.0405019
22.52 0.0339506
22.555 0.00849734
22.59 0.0360261
22.625 0.00909748
22.66 0.0890905
22.695 0.0722107
22.73 0.0484532
22.765 0.0327945
22.8 0.00817909
22.835 0.0445783
22.87 0.0674719
22.905 0.0273405
22.94 -0.00382357
22.975 0.047612
23.01 0.0642926
23.045 0.00671548
23.08 0.0367703
23.115 0.0438588
23.15 0.0125099
23.185 0.051574
23.22 0.042835
23.255 0.0500299
23.29 0.0245249
23.325 0.0756799
23.36 0.0485861
23.395 0.0201836
23.43 0.00520107
23.465 0.0288257
23.5 0.0534497
23.535 -0.0149553
23.57 0.0401399
23.605 0.034052
23.64 -0.0107812
23.675 0.0233949
23.71 0.0194326
23.745 0.036341
23.78 0.0663409
23.815 0.0228416
23.85 0.0160558
23.885 0.00551391
23.92 -0.0133974
23.955 -0.0137088
23.99 0.0376748
24.025 0.0420511
24.06 0.0622439
24.095 0.0505505
24.13 0.00722203
24.165 0.0522626
24.2 0.0447199
24.235 0.0343115
24.27 0.0652543
24.305 0.0194713
24.34 0.0221401
24.375 0.036819
24.41 0.0138493
24.445 0.0096793
24.48 0.0311734
24.515 0.00108697
24.55 0.0453967
24.585 0.012733
24.62 0.0140911
24.655 0.0453524
24.69 0.00620303
24.725 0.0341618
24.76 -0.00669956
24.795 0.0250383
24.83 0.0492091
24.865 0.00780359
24.9 0.0363134
24.935 0.0372064
24.97 -0.000874319
25.005 0.0243478
25.04 0.0295605
25.075 0.0320479
25.11 0.0343346
25.145 0.00288556
25.18 0.0675377
25.215 0.0331061
25.25 -0.0125344
25.285 -0.000445597
25.32 0.0192107
25.355 0.00440193
25.39 0.0339319
25.425 -0.0115238
25.46 0.0103264
25.495 0.0136492
25.53 0.0127815
25.565 0.0589339
25.6 0.00697989
25.635 -0.00944575
25.67 0.0269822
25.705 -0.014087
25.74 0.0332573
25.775 -0.00915898
25.81 -0.0141119
25.845 -0.000295285
25.88 -0.0274896
25.915 0.0639957
25.95 0.0124536
25.985 0.0185582
26.02 0.0438343
26.055 0.0595552
26.09 0.130268
26.125 0.13714
26.16 0.156131
26.195 0.108861
26.23 0.111805
26.265 -0.0034043
26.3 0.0211404
26.335 0.021128
26.37 0.0302495
26.405 0.0508952
26.44 0.0187753
26.475 0.0448058
26.51 0.0571199
26.545 0.0428432
26.58 0.0534695
26.615 0.0417536
26.65 0.0350408
26.685 0.0285761
26.72 0.0146945
26.755 0.0207071
26.79 -0.000117677
26.825 0.054464
26.86 0.00354057
26.895 0.0512936
26.93 0.00393987
26.965 0.031693
27 0.0318059
27.035 0.0300082
27.07 0.0402363
27.105 0.0656196
27.14 0.0671505
27.175 0.0810733
27.21 0.12298
27.245 0.0954839
27.28 0.074354
27.315 0.0607183
27.35 0.0490517
27.385 0.0325588
27.42 0.000373795
27.455 0.0507562
27.49 0.0547309
27.525 0.0510088
27.56 0.0714614
27.595 0.0584528
27.63 0.107619
27.665 0.0870923
27.7 0.119075
27.735 0.0907855
27.77 0.105169
27.805 0.0857516
27.84 0.0891523
27.875 0.15688
27.91 0.215787
27.945 0.250202
27.98 0.220474
28.015 0.195496
28.05 0.165933
28.085 0.0949771
28.12 0.0155663
28.155 0.0158912
28.19 0.0196025
28.225 0.030664
28.26 -0.00654195
28.295 0.0227114
28.33 0.0555617
28.365 0.0461824
28.4 -0.00251603
28.435 0.0223718
28.47 0.010443
28.505 0.000718639
28.54 -0.0138732
28.575 0.0116958
28.61 0.00537304
28.645 -0.0013244
28.68 -0.0251184
28.715 0.0127824
28.75 0.0108771
28.785 -0.00277818
28.82 0.00246927
28.855 -0.0216502
28.89 0.0202035
28.925 0.0354317
28.96 0.011753
28.995 0.0254694
29.03 0.0434139
29.065 0.016638
29.1 0.00191984
29.135 -0.00579474
29.17 0.0146234
29.205 0.0114228
29.24 0.0251196
29.275 0.0516253
29.31 0.0671842
29.345 0.0496129
29.38 0.0377679
29.415 0.0556815
29.45 0.0980156
29.485 0.105822
29.52 0.127306
29.555 0.188492
29.59 0.208986
29.625 0.245048
29.66 0.224221
29.695 0.170137
29.73 0.140933
29.765 0.114497
29.8 0.0913055
29.835 0.0820324
29.87 0.130631
29.905 0.134877
29.94 0.192451
29.975 0.361808
30.01 0.677681
30.045 1.06963
30.08 1.52766
30.115 1.91023
30.15 1.92997
30.185 1.63385
30.22 1.24703
30.255 0.771732
30.29 0.402358
30.325 0.246105
30.36 0.100234
30.395 0.0679614
30.43 0.0517709
30.465 0.0230484
30.5 0.0493882
30.535 0.0207541
30.57 -0.00759208
30.605 0.0224705
30.64 0.0017357
30.675 -0.0210948
30.71 0.0427412
30.745 0.0406792
30.78 0.0305388
30.815 0.00634197
30.85 0.034284
30.885 0.0193147
30.92 0.0555563
30.955 0.0263791
30.99 -0.0328135
31.025 0.00235515
31.06 0.00445739
31.095 0.00847137
31.13 0.0280553
31.165 -0.0016452
31.2 -0.0099058
31.235 0.00660041
31.27 -0.0160886
31.305 -0.00563786
31.34 -0.0212281
31.375 -0.0178513
31.41 0.02752
31.445 -0.00650928
31.48 -0.000447629
31.515 0.013409
31.55 0.0198197
31.585 0.0231218
31.62 -0.0212606
31.655 0.00122022
31.69 0.0182471
31.725 0.00115672
31.76 -0.00479229
31.795 0.00358013
31.83 0.0051925
31.865 -0.0145721
31.9 0.0306598
31.935 0.0360223
31.97 0.0222422
32.005 0.0414682
32.04 0.0787007
32.075 0.0932219
32.11 0.135527
32.145 0.115679
32.18 0.130153
32.215 0.124345
32.25 0.114283
32.285 0.0750247
32.32 0.0686496
32.355 0.0167839
32.39 -0.00607862
32.425 0.0147888
32.46 -0.0167467
32.495 -0.00671406
32.53 0.0316174
32.565 -0.0239114
32.6 -0.00805282
32.635 0.0208793
32.67 -0.0139161
32.705 0.00185246
32.74 -0.0172351
32.775 0.0126489
32.81 -0.000843174
32.845 0.0116216
32.88 0.032477
32.915 0.0161669
32.95 0.0412898
32.985 0.0405029
33.02 0.01132
33.055 0.00446178
33.09 0.021143
33.125 0.00267699
33.16 -0.0110853
33.195 0.00358367
33.23 -0.00342944
33.265 -0.0314405
33.3 0.000200652
33.335 -0.0062021
33.37 0.0130015
33.405 -0.00632193
33.44 0.0154305
33.475 0.00210202
33.51 0.00176604
33.545 0.000465447
33.58 0.00566376
33.615 0.00553325
33.65 3.72975e-06
33.685 -0.0175524
33.72 -0.022473
33.755 -0.00204789
33.79 -0.0215263
33.825 0.013301
33.86 0.000481662
33.895 0.0015343
33.93 -0.0156752
33.965 0.00354956
34 -0.0150432
34.035 -0.00368686
34.07 -0.00803116
34.105 -0.00800602
34.14 0.00618034
34.175 0.00434751
34.21 0.0147938
34.245 0.0410348
34.28 0.0424706
34.315 0.0692223
34.35 0.162989
34.385 0.300743
34.42 0.42979
34.455 0.550515
34.49 0.535391
34.525 0.483931
34.56 0.447005
34.595 0.346883
34.63 0.233297
34.665 0.150526
34.7 0.0960737
34.735 0.067247
34.77 0.0418009
34.805 0.0370441
34.84 0.011761
34.875 0.0410224
34.91 0.00992693
34.945 0.0162984
34.98 0.030544
35.015 0.0259677
35.05 0.086312
35.085 0.0744916
35.12 0.114878
35.155 0.104329
35.19 0.119992
35.225 0.150502
35.26 0.156893
35.295 0.171651
35.33 0.121264
35.365 0.0918454
35.4 0.0721887
35.435 0.0610175
35.47 0.0414747
35.505 0.0285383
35.54 0.0291996
35.575 0.030021
35.61 0.00643659
35.645 0.0179368
35.68 0.00434337
35.715 0.0174682
35.75 0.00126339
35.785 0.0149224
35.82 0.0292972
35.855 0.00493213
35.89 0.00807182
35.925 -0.00518893
35.96 0.0460658
35.995 0.0073146
36.03 0.0243069
36.065 0.0360798
36.1 0.0431026
36.135 0.0479669
36.17 0.0459014
36.205 0.056381
36.24 0.0303059
36.275 0.0455975
36.31 0.0284636
36.345 0.0138217
36.38 0.0248015
36.415 0.00785057
36.45 0.0088089
36.485 -0.000633366
36.52 -0.0136087
36.555 -0.0122265
36.59 -0.0129182
36.625 0.0227402
36.66 -0.0227243
36.695 0.000236273
36.73 0.000832179
36.765 -0.0114955
36.8 0.00629228
36.835 -0.00165407
36.87 -0.0131665
36.905 -0.00432198
36.94 -0.00485408
36.975 -0.0158479
37.01 -0.0157111
37.045 -0.0111037
37.08 -0.0174479
37.115 -0.00928221
37.15 -0.0123029
37.185 0.019175
37.22 -0.00300214
37.255 0.00320192
37.29 -0.00999684
37.325 -0.00800179
37.36 -0.0148135
37.395 -0.00838226
37.43 0.0113654
37.465 -0.00194945
37.5 0.00519932
37.535 0.0189139
37.57 0.0296501
37.605 0.0224102
37.64 0.0280932
37.675 0.0186641
37.71 0.0205053
37.745 0.000300031
37.78 0.00609395
37.815 -0.00165921
37.85 -0.00153087
37.885 0.000572339
37.92 -0.00556099
37.955 0.00292308
37.99 -0.0042195
38.025 0.0107363
38.06 -0.00777037
38.095 -0.0215499
38.13 0.00285051
38.165 0.00479223
38.2 0.00364574
38.235 0.0136519
38.27 -0.00309735
38.305 0.0135096
38.34 0.0200051
38.375 0.050743
38.41 0.0369417
38.445 0.0673056
38.48 0.0972525
38.515 0.0973625
38.55 0.116091
38.585 0.12176
38.62 0.12265
38.655 0.100189
38.69 0.0455963
38.725 0.0496193
38.76 0.0251609
38.795 0.0274607
38.83 0.0130021
38.865 0.0269659
38.9 0.00710932
38.935 0.00399268
38.97 -0.00914439
39.005 -0.00848627
39.04 0.000561983
39.075 0.00604315
39.11 -0.0214526
39.145 -0.021999
39.18 -0.0181196
39.215 -0.00522325
39.25 -0.0098279
39.285 0.00814987
39.32 -0.00695702
39.355 -2.20865e-05
39.39 -0.00668001
39.425 -0.00558013
39.46 -0.00262691
39.495 0.0166645
39.53 0.00577752
39.565 0.0107341
39.6 0.0551476
39.635 0.0533827
39.67 0.0288178
39.705 0.0873927
39.74 0.14895
39.775 0.233823
39.81 0.397607
39.845 0.638685
39.88 0.886859
39.915 1.15383
39.95 1.23831
39.985 1.27531
40.02 1.06351
40.055 0.846864
40.09 0.585472
40.125 0.389193
40.16 0.254134
40.195 0.138243
40.23 0.0936933
40.265 0.0634118
40.3 0.0250643
40.335 0.0199634
40.37 0.00406465
40.405 0.0263438
40.44 0.0132737
40.475 0.0173522
40.51 0.0175781
40.545 0.0200886
40.58 -0.00743504
40.615 0.0141325
40.65 0.0292227
40.685 0.0141242
40.72 -0.00160964
40.755 0.013103
40.79 0.0129629
40.825 0.0140104
40.86 -0.00725364
40.895 -0.00408642
40.93 0.0188019
40.965 0.0177365
41 0.0106412
41.035 0.00967354
41.07 -0.00642303
41.105 -0.00359258
41.14 0.0278107
41.175 -0.00282747
41.21 -0.00717318
41.245 0.000402075
41.28 0.0113551
41.315 0.0102717
41.35 0.0258308
41.385 0.0227537
41.42 0.00787148
41.455 -0.0195019
41.49 -0.00935498
41.525 0.00361432
41.56 0.00432503
41.595 0.0198084
41.63 0.00500656
41.665 0.00966427
41.7 0.0363811
41.735 0.00390794
41.77 0.000517775
41.805 0.0170345
41.84 0.0180197
41.875 0.0176445
41.91 0.0265488
41.945 0.0188279
41.98 0.0176042
42.015 0.0081187
42.05 0.0351285
42.085 0.0281747
42.12 0.0549495
42.155 0.0807478
42.19 0.0627305
42.225 0.0680005
42.26 0.094806
42.295 0.117478
42.33 0.163573
42.365 0.151438
42.4 0.136098
42.435 0.169748
42.47 0.143123
42.505 0.136536
42.54 0.0836042
42.575 0.0853518
42.61 0.0912164
42.645 0.0550946
42.68 0.0276091
42.715 0.0131
42.75 0.00393362
42.785 0.0161031
42.82 0.00394264
42.855 0.00837296
42.89 0.025504
42.925 0.02162
42.96 0.0130306
42.995 0.0113331
43.03 -0.000951603
43.065 -0.0193222
43.1 0.00489116
43.135 -0.0032932
43.17 0.00944588
43.205 -0.0173503
43.24 -0.00251731
43.275 0.00125943
43.31 0.0060861
43.345 0.0114778
43.38 0.00295844
43.415 -0.0056726
43.45 0.0124137
43.485 -0.0199769
43.52 -0.00612326
43.555 0.00888984
43.59 -0.00996933
43.625 -0.00813949
43.66 0.0218955
43.695 0.0164353
43.73 -0.011578
43.765 0.0191949
43.8 0.0252124
43.835 0.0142759
43.87 0.0164434
43.905 0.0212515
43.94 0.0379736
43.975 0.0495067
44.01 0.0469866
44.045 0.0383117
44.08 0.0389786
44.115 0.0235459
44.15 0.0161761
44.185 -0.00339425
44.22 0.0130225
44.255 -0.0160823
44.29 0.000886455
44.325 0.00901848
44.36 0.0121613
44.395 -0.00797011
44.43 0.012344
44.465 0.0136978
44.5 -0.00318379
44.535 -0.0182334
44.57 0.00990118
44.605 0.0060777
44.64 -0.00138298
44.675 0.00383334
44.71 0.0177581
44.745 0.0212535
44.78 0.00290604
44.815 0.017842
44.85 0.0297214
44.885 0.0355307
44.92 0.109393
44.955 0.173742
44.99 0.275267
45.025 0.400383
45.06 0.509329
45.095 0.630259
45.13 0.62207
45.165 0.60063
45.2 0.547134
45.235 0.461005
45.27 0.343629
45.305 0.245935
45.34 0.167579
45.375 0.109855
45.41 0.0688175
45.445 0.0355576
45.48 0.0266164
45.515 0.0236893
45.55 0.0277016
45.585 0.0475084
45.62 0.0249273
45.655 0.032053
45.69 0.0349475
45.725 0.0233737
45.76 0.0562446
45.795 0.0445527
45.83 0.113723
45.865 0.106898
45.9 0.105848
45.935 0.166236
45.97 0.265945
46.005 0.456228
46.04 0.686322
46.075 0.949395
46.11 1.20638
46.145 1.32108
46.18 1.41499
46.215 1.37205
46.25 1.22504
46.285 1.04007
46.32 0.789641
46.355 0.5719
46.39 0.43712
46.425 0.30705
46.46 0.208205
46.495 0.164142
46.53 0.123936
46.565 0.0866306
46.6 0.0837136
46.635 0.0469573
46.67 0.0661219
46.705 0.0159728
46.74 0.0339938
46.775 0.0340862
46.81 0.0275695
46.845 -0.000732159
46.88 0.0149212
46.915 0.0247094
46.95 -0.00473994
46.985 0.0173037
47.02 0.0072833
47.055 0.0100358
47.09 0.0327018
47.125 0.0207012
47.16 0.00915833
47.195 0.0156427
47.23 0.00986548
47.265 0.00525531
47.3 0.0225234
47.335 0.0201858
47.37 0.022233
47.405 0.0497776
47.44 0.0693814
47.475 0.12648
47.51 0.151688
47.545 0.133981
47.58 0.149151
47.615 0.157101
47.65 0.10404
47.685 0.103132
47.72 0.0567797
47.755 0.0511384
47.79 0.021405
47.825 0.0165256
47.86 0.0197729
47.895 -1.43338e-06
47.93 0.0143602
47.965 0.0214691
48 0.0155746
48.035 0.0153835
48.07 0.0159766
48.105 0.0161816
48.14 0.00284449
48.175 0.0346627
48.21 0.0239199
48.245 0.0235836
48.28 0.0270885
48.315 0.0248081
48.35 0.0334027
48.385 0.0254521
48.42 0.0297654
48.455 0.0179349
48.49 0.0410631
48.525 0.0617445
48.56 0.0736792
48.595 0.104402
48.63 0.189454
48.665 0.21565
48.7 0.217357
48.735 0.233541
48.77 0.232702
48.805 0.208488
48.84 0.169703
48.875 0.127338
48.91 0.0886711
48.945 0.0621301
48.98 0.0293062
49.015 0.012059
49.05 -0.00245592
49.085 -0.00550612
49.12 0.00364733
49.155 -0.0128488
49.19 -0.0141629
49.225 -0.0191357
49.26 -0.0175303
49.295 -0.00908121
49.33 -0.0118797
49.365 -0.01685
49.4 -0.00468226
49.435 0.00320468
49.47 0.00240229
49.505 0.00354281
49.54 -0.00752723
49.575 -0.000222929
49.61 -0.0192359
49.645 -0.00401859
49.68 -0.00697255
49.715 -0.0015111
49.75 -0.00258029
49.785 -0.0124607
49.82 -0.0223199
49.855 -0.0210508
49.89 -0.000590052
49.925 -0.00809117
49.96 -0.00635548
49.995 -0.00602984
50.03 -0.00402379
50.065 -0.010755
50.1 -0.000469871
50.135 -0.0120128
50.17 -1.0136e-06
50.205 0.0179157
50.24 -0.00263637
50.275 -0.0039161
50.31 0.0136227
50.345 0.0205667
50.38 0.0222516
50.415 0.0486271
50.45 0.0565106
50.485 0.0605888
50.52 0.0547349
50.555 0.0745141
50.59 0.0833402
50.625 0.0633626
50.66 0.0685462
50.695 0.0673741
50.73 0.0611453
50.765 0.0446338
50.8 0.0249176
50.835 0.0170563
50.87 0.0150443
50.905 0.0105599
50.94 0.0193981
50.975 0.00256692
51.01 0.00968705
51.045 0.0167611
51.08 0.0147783
51.115 0.0107062
51.15 -0.000677818
51.185 -0.0144884
51.22 -0.0181928
51.255 -0.0126474
51.29 -0.000744559
51.325 -0.00736629
51.36 0.00247893
51.395 -0.00640625
51.43 -0.00253361
51.465 -0.00232632
51.5 0.00253803
51.535 0.0123988
51.57 -0.0226173
51.605 -0.00553995
51.64 0.0175003
51.675 -0.000600134
51.71 0.0061148
51.745 0.0177624
51.78 0.00120074
51.815 -0.00309777
51.85 0.0164163
51.885 0.00565345
51.92 -0.00618185
51.955 -0.0186791
51.99 -0.00911033
52.025 0.0153581
52.06 -0.00747018
52.095 -0.00057515
52.13 -0.00596345
52.165 -0.00808072
52.2 -0.000486304
52.235 0.00234603
52.27 -0.00606769
52.305 -0.00818731
52.34 0.012255
52.375 -0.00474834
52.41 0.00545655
52.445 0.0198496
52.48 0.0208984
52.515 0.0131578
52.55 0.0243929
52.585 0.0242638
52.62 0.0488982
52.655 0.0496962
52.69 0.095651
52.725 0.140112
52.76 0.179457
52.795 0.260034
52.83 0.329412
52.865 0.404426
52.9 0.451218
52.935 0.475072
52.97 0.487282
53.005 0.426986
53.04 0.385707
53.075 0.310349
53.11 0.243599
53.145 0.17142
53.18 0.122454
53.215 0.101294
53.25 0.0658499
53.285 0.051959
53.32 0.0333839
53.355 0.00897646
53.39 0.0121497
53.425 0.00633306
53.46 -0.00307638
53.495 0.0100965
53.53 -0.0028507
53.565 -0.00124686
53.6 -0.00226677
53.635 -0.00778207
53.67 0.0184732
53.705 0.0102021
53.74 -0.00328589
53.775 -0.00474159
53.81 0.00889668
53.845 0.00108149
53.88 0.0182967
53.915 0.00391252
53.95 0.000173603
53.985 -0.00521306
54.02 -0.0151845
54.055 -0.00308188
54.09 0.00444502
54.125 -0.00632348
54.16 -0.00247311
54.195 -0.00865844
54.23 -0.0125524
54.265 0.0191822
54.3 -0.000799555
54.335 -0.000186205
54.37 -0.015162
54.405 -0.00275599
54.44 0.0124383
54.475 -0.0061061
54.51 0.0115375
54.545 0.00637022
54.58 0.000721722
54.615 -0.00228934
54.65 0.00219334
54.685 0.00218697
54.72 -0.00193832
54.755 0.00583686
54.79 -0.00432907
54.825 0.00717277
54.86 -0.00473244
54.895 0.00700705
54.93 0.0163373
54.965 0.0307945
55 0.0309363
55.035 0.0331029
55.07 0.0284003
55.105 0.0339459
55.14 0.0410177
55.175 0.00508066
55.21 0.00425803
55.245 0.00424141
55.28 -0.000916733
55.315 0.000351478
55.35 0.0123041
55.385 -0.0022228
55.42 -0.00130481
55.455 0.00185327
55.49 -0.00315432
55.525 0.013264
55.56 -0.0144587
55.595 -0.00435462
55.63 0.0144834
55.665 0.00661344
55.7 0.00170144
55.735 0.00660496
55.77 0.0128915
55.805 0.0345837
55.84 0.0386089
55.875 0.0423914
55.91 0.0820485
55.945 0.135463
55.98 0.191204
56.015 0.261342
56.05 0.308901
56.085 0.342499
56.12 0.380789
56.155 0.387245
56.19 0.375034
56.225 0.360058
56.26 0.307084
56.295 0.27932
56.33 0.214069
56.365 0.177436
56.4 0.125479
56.435 0.0865579
56.47 0.062077
56.505 0.0363353
56.54 0.0407308
56.575 0.00746629
56.61 0.00496586
56.645 0.0152028
56.68 -0.0115846
56.715 -0.00196195
56.75 -0.00558538
56.785 -0.00616103
56.82 0.0192218
56.855 0.0139173
56.89 -8.20913e-05
56.925 0.0210152
56.96 -0.0085755
56.995 0.00897175
57.03 0.0182186
57.065 0.0106591
57.1 0.012542
57.135 -0.00277796
57.17 0.00895082
57.205 -0.00523737
57.24 0.0130415
57.275 0.026064
57.31 0.0165234
57.345 0.0102089
57.38 0.0143156
57.415 0.0176852
57.45 -0.00518364
57.485 -0.0143198
57.52 -0.0140524
57.555 -0.00705159
57.59 0.00734054
57.625 0.0127594
57.66 0.0273896
57.695 0.0279891
57.73 0.0405705
57.765 0.0667882
57.8 0.0699976
57.835 0.097454
57.87 0.0940079
57.905 0.106786
57.94 0.0887443
57.975 0.104721
58.01 0.0922624
58.045 0.0586516
58.08 0.0314746
58.115 0.0551943
58.15 0.041529
58.185 0.0193356
58.22 0.0182169
58.255 0.0278303
58.29 -0.00559797
58.325 0.0051561
58.36 0.0151223
58.395 0.0225232
58.43 0.0174538
58.465 0.00251146
58.5 0.00671713
58.535 -0.00673434
58.57 0.0199254
58.605 0.013253
58.64 0.00957448
58.675 0.0202243
58.71 0.022725
58.745 0.0363608
58.78 0.0432959
58.815 0.0786322
58.85 0.0724329
58.885 0.0715563
58.92 0.0638335
58.955 0.0842602
58.99 0.058991
59.025 0.0570438
59.06 0.0479186
59.095 0.0420021
59.13 0.0254785
59.165 0.0394753
59.2 0.0126179
59.235 0.0127162
59.27 -0.0017368
59.305 -0.00337835
59.34 -0.00502532
59.375 -0.00538593
59.41 -0.016875
59.445 -0.00955224
59.48 0.00549369
59.515 0.0042532
59.55 -0.0029672
59.585 -0.0166213
59.62 -0.00655624
59.655 0.0128183
59.69 0.0011549
59.725 0.014151
59.76 0.00209555
59.795 -0.00103776
59.83 -9.58826e-05
59.865 0.00771606
59.9 0.0004604
59.935 -0.0106186
59.97 -0.00364921
60.005 0.0157563
60.04 0.00149629
60.075 -0.000665497
60.11 0.00418711
60.145 0.00400138
60.18 0.0173607
60.215 0.027598
60.25 0.0280017
60.285 0.0133299
60.32 0.00428618
60.355 -0.0111441
60.39 -0.00140944
60.425 0.00383626
60.46 0.00163269
60.495 -0.00302366
60.53 -0.020289
60.565 -0.00680614
60.6 0.000113305
60.635 0.0123386
60.67 -0.0135408
60.705 0.0176743
60.74 -0.000513391
60.775 -0.0165202
60.81 0.00602711
60.845 -0.0130008
60.88 0.00834576
60.915 0.00101049
60.95 0.0119848
60.985 0.0263965
61.02 -0.0121863
61.055 0.00783176
61.09 0.0166103
61.125 0.0127513
61.16 0.0157637
61.195 0.0289634
61.23 0.0383686
61.265 0.0552956
61.3 0.0679424
61.335 0.104849
61.37 0.166959
61.405 0.198783
61.44 0.271567
61.475 0.296822
61.51 0.353718
61.545 0.350531
61.58 0.376814
61.615 0.348217
61.65 0.313376
61.685 0.26681
61.72 0.236845
61.755 0.218065
61.79 0.159122
61.825 0.133166
61.86 0.0836413
61.895 0.068445
61.93 0.0319868
61.965 0.0255669
62 0.0150035
62.035 0.00522717
62.07 0.0160239
62.105 -0.00925455
62.14 0.00144176
62.175 -0.00093933
62.21 0.00191994
62.245 -0.00893242
62.28 -0.000284834
62.315 -0.0029565
62.35 0.034247
62.385 0.0391089
62.42 0.00873391
62.455 0.0237948
62.49 0.0752542
62.525 0.102761
62.56 0.146748
62.595 0.17048
62.63 0.200112
62.665 0.197734
62.7 0.218987
62.735 0.227701
62.77 0.221086
62.805 0.186194
62.84 0.191021
62.875 0.171763
62.91 0.113344
62.945 0.135895
62.98 0.101785
63.015 0.0641638
63.05 0.0349876
63.085 0.0305186
63.12 0.0229135
63.155 -0.0108451
63.19 -0.00350026
63.225 -0.0053829
63.26 -0.00122447
63.295 0.00533387
63.33 -0.0140603
63.365 0.00117181
63.4 -0.0060901
63.435 0.0152733
63.47 -0.00801157
63.505 -0.000795351
63.54 -0.00767577
63.575 -0.00614939
63.61 -0.00429212
63.645 -0.00903215
63.68 0.000457086
63.715 -0.00304
63.75 0.000827678
63.785 -0.000768768
63.82 -0.00293534
63.855 0.0047466
63.89 -0.00878899
63.925 0.000782577
63.96 0.0235101
63.995 0.00175568
64.03 0.00986715
64.065 0.00615389
64.1 0.00988512
64.135 0.00341828
64.17 -0.00609383
64.205 -0.000779683
64.24 0.0152209
64.275 0.0053651
64.31 0.0118888
64.345 0.0124806
64.38 0.0304404
64.415 0.0113943
64.45 0.0136283
64.485 0.0131666
64.52 0.00738214
64.555 0.0218005
64.59 -0.00472229
64.625 0.00522888
64.66 0.0173551
64.695 -0.00448685
64.73 -0.00056853
64.765 0.0019161
64.8 -0.00362791
64.835 -0.00336247
64.87 -0.00436872
64.905 -0.00804942
64.94 -0.0170102
64.975 0.00659464
65.01 -0.0177362
65.045 -0.00925526
65.08 -0.00225827
65.115 0.0166345
65.15 -0.00921626
65.185 0.00692771
65.22 -0.0151608
65.255 0.00156545
65.29 0.0121733
65.325 -0.00367488
65.36 -0.00178524
65.395 -0.0202438
65.43 -0.00414709
65.465 -0.00296209
65.5 0.00621725
65.535 0.00512081
65.57 -0.00376042
65.605 -0.00984455
65.63 -0.0211232