File: data/xrd/xy/2019-09-12T19_45_57.603044+00_00_LBL_C1.xy
'Id: "" Comment: "Integrate frame piperidinium_01_001.gfrmwith cursor Wedge Cursor #1" Operator: "UC Berkeley" Anode: "Co" Scantype: "TwoTheta" TimePerStep: "600.015"
13.655 -0.0248286
13.695 0.064848
13.735 0.0836418
13.775 0.0709858
13.815 0.0362757
13.855 0.0488049
13.895 0.0837969
13.935 0.00304226
13.975 0.0693896
14.015 0.0976375
14.055 0.0548385
14.095 0.0603286
14.135 0.0621197
14.175 0.0215745
14.215 0.0614289
14.255 0.0913011
14.295 0.051886
14.335 0.0537746
14.375 0.0587278
14.415 0.0983064
14.455 0.0747115
14.495 0.0340546
14.535 0.0547214
14.575 0.0445026
14.615 0.0514906
14.655 0.0711139
14.695 0.0308832
14.735 0.0721886
14.775 0.0323326
14.815 0.10299
14.855 0.0645688
14.895 0.0383234
14.935 0.0745331
14.975 0.0564359
15.015 0.0796462
15.055 0.0455532
15.095 0.0752521
15.135 0.0282798
15.175 0.0571438
15.215 0.042582
15.255 0.0348242
15.295 0.0653418
15.335 0.0451942
15.375 0.0104798
15.415 0.0581851
15.455 0.0319306
15.495 0.0653265
15.535 0.0305729
15.575 0.057477
15.615 0.0376001
15.655 0.00922267
15.695 0.0484169
15.735 0.00937613
15.775 0.0193108
15.815 0.0356319
15.855 0.04484
15.895 0.0297152
15.935 0.0254134
15.975 0.0529913
16.015 0.0529711
16.055 0.0401312
16.095 0.0449865
16.135 0.0147049
16.175 0.0373949
16.215 0.0493703
16.255 0.0274567
16.295 0.0154569
16.335 0.0131901
16.375 0.0390053
16.415 0.0254827
16.455 0.0391737
16.495 0.00387019
16.535 0.0387638
16.575 0.0487818
16.615 0.0544686
16.655 0.0486601
16.695 0.0298791
16.735 0.00111557
16.775 -0.0191721
16.815 0.038235
16.855 -0.0164856
16.895 0.00917504
16.935 0.0301693
16.975 0.00935871
17.015 0.019576
17.055 0.0263655
17.095 0.00718563
17.135 0.0310684
17.175 0.0350683
17.215 0.0295852
17.255 -0.0051332
17.295 0.0208058
17.335 0.0196879
17.375 0.0194839
17.415 -0.024668
17.455 0.0268297
17.495 0.0282982
17.535 -0.00536682
17.575 0.014438
17.615 -0.00240739
17.655 0.0201541
17.695 0.0130625
17.735 0.00879046
17.775 0.0501609
17.815 0.0284287
17.855 0.00154894
17.895 0.0485773
17.935 0.0130477
17.975 0.0389586
18.015 0.0510526
18.055 -0.0018558
18.095 0.0312894
18.135 0.0437715
18.175 0.0547315
18.215 0.0548925
18.255 0.0747017
18.295 0.0629693
18.335 0.0435755
18.375 0.0459811
18.415 0.0313527
18.455 0.0366644
18.495 0.029048
18.535 0.0250461
18.575 -0.0026613
18.615 0.0409218
18.655 0.0297582
18.695 0.0118092
18.735 0.00831997
18.775 0.0188621
18.815 0.0115537
18.855 0.0376211
18.895 0.00387343
18.935 0.00578314
18.975 0.0432589
19.015 0.0187975
19.055 0.0162973
19.095 0.0509814
19.135 -2.54717e-05
19.175 0.0110478
19.215 0.0405349
19.255 0.0192208
19.295 -0.00678834
19.335 -0.00376996
19.375 0.0269612
19.415 0.0208684
19.455 0.00331149
19.495 0.0041073
19.535 0.056276
19.575 0.0117539
19.615 -0.0240701
19.655 0.0315403
19.695 0.0206827
19.735 0.00619105
19.775 -0.00224544
19.815 0.0413443
19.855 -0.0104258
19.895 0.0038474
19.935 -0.0120535
19.975 -0.0148733
20.015 -0.00259844
20.055 0.0373531
20.095 0.0460717
20.135 0.0370339
20.175 0.0116277
20.215 0.0280822
20.255 0.0334135
20.295 0.0543861
20.335 0.0263203
20.375 0.0706347
20.415 0.0994336
20.455 0.143125
20.495 0.154744
20.535 0.254243
20.575 0.233967
20.615 0.183473
20.655 0.100484
20.695 0.0274763
20.735 0.0355506
20.775 -0.00171738
20.815 0.0247505
20.855 0.0446294
20.895 0.0181053
20.935 0.0137923
20.975 0.00449566
21.015 0.025913
21.055 0.0273364
21.095 0.00901894
21.135 0.04799
21.175 0.0315501
21.215 0.0209694
21.255 0.0344853
21.295 0.0203194
21.335 0.0564069
21.375 0.0484082
21.415 -0.0167487
21.455 0.00299584
21.495 0.044034
21.535 -0.000765349
21.575 0.0106199
21.615 0.0231999
21.655 0.00542256
21.695 0.00473662
21.735 0.0551974
21.775 0.0105136
21.815 0.0205669
21.855 0.00133497
21.895 -0.00713995
21.935 0.0145351
21.975 0.0276254
22.015 0.0169492
22.055 -0.00179949
22.095 -0.0116193
22.135 0.0100508
22.175 0.0214186
22.215 0.0456971
22.255 0.0606363
22.295 0.0981453
22.335 0.113447
22.375 0.160545
22.415 0.183277
22.455 0.148373
22.495 0.0634956
22.535 -0.0057767
22.575 -0.00206267
22.615 0.0447758
22.655 0.00797133
22.695 -0.0102555
22.735 -0.0191477
22.775 -0.00649773
22.815 -0.00684949
22.855 0.00653065
22.895 -0.0165509
22.935 0.00347673
22.975 0.0511485
23.015 0.0264191
23.055 0.0210735
23.095 0.0146261
23.135 0.00768904
23.175 0.0413426
23.215 0.00695732
23.255 0.0102895
23.295 0.0312392
23.335 0.0562321
23.375 0.0350202
23.415 0.0376008
23.455 0.0312683
23.495 0.0413364
23.535 0.0658468
23.575 0.187248
23.615 0.402193
23.655 0.711003
23.695 0.921202
23.735 0.914273
23.775 0.657231
23.815 0.398927
23.855 0.147479
23.895 0.0162099
23.935 0.0284899
23.975 -0.00639175
24.015 0.0351265
24.055 0.0155199
24.095 0.0362592
24.135 0.109212
24.175 0.0729266
24.215 0.0717737
24.255 0.0328543
24.295 0.0216786
24.335 0.0199984
24.375 0.0191578
24.415 0.00573543
24.455 0.0315429
24.495 0.0190085
24.535 0.0175538
24.575 0.012176
24.615 0.0187765
24.655 0.0113619
24.695 -0.00460661
24.735 0.0105875
24.775 0.0454415
24.815 0.0428053
24.855 -0.0121696
24.895 0.022502
24.935 0.0300436
24.975 0.00234256
25.015 0.0233276
25.055 0.0252307
25.095 0.0156503
25.135 0.0325182
25.175 0.0171888
25.215 -0.0234781
25.255 0.0299392
25.295 0.0337973
25.335 0.00264278
25.375 0.0227457
25.415 0.0339495
25.455 0.0291953
25.495 0.00346726
25.535 0.00905305
25.575 0.0408546
25.615 -0.00147476
25.655 0.040529
25.695 0.0951381
25.735 0.146173
25.775 0.212604
25.815 0.217458
25.855 0.153413
25.895 0.103916
25.935 0.0899974
25.975 0.0161303
26.015 0.0267434
26.055 0.0434469
26.095 -0.00773522
26.135 0.0372594
26.175 0.0598965
26.215 0.0494593
26.255 0.0767654
26.295 0.130529
26.335 0.102045
26.375 0.0988599
26.415 0.0369184
26.455 0.033085
26.495 0.0150612
26.535 0.0295985
26.575 0.0242821
26.615 0.0305145
26.655 0.0441053
26.695 -0.0230431
26.735 0.0223241
26.775 0.027915
26.815 -0.00433246
26.855 0.0204577
26.895 0.0135412
26.935 0.0177171
26.975 0.00366601
27.015 0.0186963
27.055 -0.00434539
27.095 0.00424465
27.135 -0.0108335
27.175 0.0243913
27.215 0.0223432
27.255 0.0220054
27.295 0.0185979
27.335 0.00209689
27.375 0.0196527
27.415 0.00650841
27.455 0.0293722
27.495 0.0224941
27.535 -0.0218247
27.575 0.0192398
27.615 -0.000644089
27.655 -0.0143716
27.695 0.0239803
27.735 0.00232401
27.775 -0.00867089
27.815 0.0261956
27.855 0.00760101
27.895 0.0113164
27.935 0.0489757
27.975 0.00189803
28.015 0.0152016
28.055 0.0146261
28.095 -0.00247549
28.135 0.00261515
28.175 0.0171226
28.215 0.00959783
28.255 -0.00745534
28.295 -0.0207321
28.335 -0.016253
28.375 0.0325421
28.415 -0.00560488
28.455 0.0177435
28.495 0.0473415
28.535 0.038353
28.575 0.0314489
28.615 0.0509925
28.655 0.103156
28.695 0.0387439
28.735 0.0281786
28.775 0.0444197
28.815 0.0265134
28.855 0.0188584
28.895 0.0326177
28.935 0.0550065
28.975 0.0664214
29.015 0.0955468
29.055 0.334159
29.095 0.706151
29.135 1.07044
29.175 1.26403
29.215 1.48805
29.255 1.82837
29.295 1.51735
29.335 0.899097
29.375 0.401416
29.415 0.189407
29.455 0.0812205
29.495 0.0384192
29.535 -0.00514701
29.575 0.0112713
29.615 0.0203791
29.655 -0.0047996
29.695 -0.00670059
29.735 0.00369165
29.775 0.0302849
29.815 0.0136755
29.855 0.00614663
29.895 -0.0017648
29.935 0.0272463
29.975 0.0425185
30.015 -0.0117203
30.055 -0.00082212
30.095 0.0197677
30.135 -0.00532469
30.175 0.000525861
30.215 0.0114261
30.255 0.0189171
30.295 0.0182247
30.335 -0.00587014
30.375 0.0281187
30.415 0.0792379
30.455 0.156246
30.495 0.272542
30.535 0.359721
30.575 0.394552
30.615 0.359692
30.655 0.251997
30.695 0.170252
30.735 0.0899833
30.775 0.0456771
30.815 0.0156212
30.855 -0.0158008
30.895 0.00370119
30.935 -0.0203559
30.975 0.020115
31.015 0.00837823
31.055 -0.00741719
31.095 0.011213
31.135 0.00552484
31.175 0.00786729
31.215 0.00629772
31.255 0.0119123
31.295 0.0101444
31.335 0.000821905
31.375 0.031147
31.415 -0.0216196
31.455 0.00726318
31.495 0.0100305
31.535 0.000323333
31.575 0.0239888
31.615 0.0156265
31.655 -0.0153663
31.695 0.00576399
31.735 -0.0201905
31.775 -0.00952667
31.815 -0.00386012
31.855 0.00867378
31.895 0.0190254
31.935 0.0510996
31.975 -0.00116276
32.015 0.0239146
32.055 -0.00282474
32.095 -0.000426161
32.135 -0.0129743
32.175 -0.000479637
32.215 0.00902094
32.255 0.0275176
32.295 -0.00348492
32.335 0.0021873
32.375 0.00812207
32.415 0.0384731
32.455 0.00969448
32.495 0.0178351
32.535 0.0114141
32.575 0.00698063
32.615 0.0423369
32.655 0.0663597
32.695 0.11881
32.735 0.204375
32.775 0.258595
32.815 0.434486
32.855 0.804179
32.895 1.01541
32.935 1.12792
32.975 0.89296
33.015 0.571101
33.055 0.335006
33.095 0.23993
33.135 0.250066
33.175 0.252481
33.215 0.230267
33.255 0.15905
33.295 0.11262
33.335 0.0487041
33.375 0.0351904
33.415 0.00432548
33.455 0.00178535
33.495 -0.0120711
33.535 -0.00717555
33.575 0.0062377
33.615 0.00659384
33.655 -0.000603379
33.695 -0.00218122
33.735 0.00425865
33.775 0.0144416
33.815 0.00421805
33.855 0.0218185
33.895 0.0431371
33.935 0.085626
33.975 0.125362
34.015 0.13594
34.055 0.12677
34.095 0.0730144
34.135 0.0600272
34.175 0.0531811
34.215 0.0256562
34.255 0.021012
34.295 -0.00358877
34.335 0.00512908
34.375 -0.00207211
34.415 0.00321221
34.455 -0.0118438
34.495 0.0107769
34.535 -0.0165034
34.575 -0.00834409
34.615 0.00110056
34.655 -0.0154593
34.695 -0.00509468
34.735 -0.0010083
34.775 0.0101432
34.815 0.000759749
34.855 0.0305598
34.895 0.04337
34.935 0.0547098
34.975 0.0552986
35.015 0.0944172
35.055 0.125973
35.095 0.149756
35.135 0.199273
35.175 0.22223
35.215 0.250043
35.255 0.322234
35.295 0.47998
35.335 0.503763
35.375 0.412041
35.415 0.24319
35.455 0.136049
35.495 0.0761059
35.535 0.033544
35.575 0.0306069
35.615 0.00117253
35.655 0.00684035
35.695 -0.000866153
35.735 0.00853975
35.775 0.000751606
35.815 0.0289938
35.855 0.0284536
35.895 0.0481024
35.935 0.0873335
35.975 0.0958712
36.015 0.128757
36.055 0.207077
36.095 0.331762
36.135 0.522025
36.175 0.775294
36.215 1.07959
36.255 1.66856
36.295 2.32075
36.335 3.13737
36.375 3.78683
36.415 3.58367
36.455 2.71768
36.495 1.65255
36.535 0.870359
36.575 0.425623
36.615 0.235954
36.655 0.138137
36.695 0.138945
36.735 0.174388
36.775 0.283281
36.815 0.517988
36.855 0.874118
36.895 1.23534
36.935 1.16927
36.975 0.850706
37.015 0.47608
37.055 0.216038
37.095 0.0986685
37.135 0.0357962
37.175 0.0290961
37.215 0.0198816
37.255 -0.00620565
37.295 0.00607126
37.335 -0.0109565
37.375 0.00487597
37.415 0.00805808
37.455 -0.0017218
37.495 0.00523385
37.535 0.0113966
37.575 -0.00981469
37.615 -0.0065462
37.655 -0.00661406
37.695 -0.0063473
37.735 0.0158621
37.775 -0.0110693
37.815 0.0129879
37.855 0.00104663
37.895 0.00120659
37.935 -0.0120758
37.975 0.0159689
38.015 -0.0141176
38.055 -0.0150306
38.095 0.0163279
38.135 -0.00113542
38.175 0.0254688
38.215 -0.00855484
38.255 -0.0121528
38.295 -0.00418062
38.335 0.00230353
38.375 0.0282515
38.415 0.0264971
38.455 0.0122699
38.495 0.0227141
38.535 0.048654
38.575 0.0500326
38.615 0.0481347
38.655 0.0371543
38.695 0.0393372
38.735 0.0245522
38.775 0.0203462
38.815 0.00633668
38.855 0.0255647
38.895 0.0135029
38.935 -0.00908363
38.975 0.00966027
39.015 0.00501091
39.055 0.0164941
39.095 -0.000348139
39.135 0.0209877
39.175 0.00531508
39.215 -0.0037613
39.255 0.0175669
39.295 -0.00297058
39.335 0.0215271
39.375 0.00898366
39.415 0.00641711
39.455 0.00938311
39.495 0.0197128
39.535 0.0312078
39.575 0.0370886
39.615 0.0488207
39.655 0.0726023
39.695 0.104461
39.735 0.135754
39.775 0.202488
39.815 0.31057
39.855 0.38263
39.895 0.371436
39.935 0.325485
39.975 0.251838
40.015 0.195748
40.055 0.136791
40.095 0.0930913
40.135 0.0684895
40.175 0.0637595
40.215 0.0596805
40.255 0.0459472
40.295 0.0293038
40.335 0.0171742
40.375 0.0016501
40.415 0.00567753
40.455 -0.00142027
40.495 -0.0135705
40.535 0.005035
40.575 0.00564436
40.615 0.00796123
40.655 0.0112017
40.695 -0.00695371
40.735 -0.000950951
40.775 -0.00713147
40.815 -0.0151432
40.855 0.00632849
40.895 -0.00912329
40.935 0.0131203
40.975 0.00977542
41.015 0.00819068
41.055 0.0182778
41.095 0.00490217
41.135 0.0227689
41.175 0.0223256
41.215 0.0232094
41.255 0.0465191
41.295 0.0967427
41.335 0.181966
41.375 0.380369
41.415 0.741871
41.455 1.09888
41.495 1.26395
41.535 1.3302
41.575 1.35228
41.615 1.30483
41.655 1.31491
41.695 1.43397
41.735 1.55708
41.775 1.51766
41.815 1.30017
41.855 1.03494
41.895 0.807372
41.935 0.655905
41.975 0.519556
42.015 0.394674
42.055 0.296239
42.095 0.224687
42.135 0.169159
42.175 0.132871
42.215 0.0707124
42.255 0.0282067
42.295 0.0221429
42.335 0.00810557
42.375 0.00710162
42.415 0.0205459
42.455 0.0207225
42.495 -0.000820248
42.535 0.0343315
42.575 0.0197531
42.615 0.0402845
42.655 0.0686489
42.695 0.0721069
42.735 0.0415192
42.775 0.0429239
42.815 0.0325292
42.855 0.0354965
42.895 0.0709854
42.935 0.0453077
42.975 0.0334219
43.015 0.0241039
43.055 0.0223519
43.095 0.0155657
43.135 0.00412667
43.175 0.0155323
43.215 0.000467354
43.255 -0.00890144
43.295 0.0052437
43.335 0.0238573
43.375 -0.0109327
43.415 -0.00330686
43.455 0.0313996
43.495 0.00295796
43.535 0.0158102
43.575 0.0190862
43.615 -0.00189391
43.655 0.0383294
43.695 0.0103102
43.735 0.022716
43.775 -0.00119932
43.815 0.0219991
43.855 0.015472
43.895 0.00744703
43.935 -0.000781176
43.975 -0.00456422
44.015 0.00490633
44.055 -0.00748359
44.095 -0.00468002
44.135 -0.00233254
44.175 0.00490204
44.215 0.00291435
44.255 -0.00140264
44.295 0.0130971
44.335 -0.0014746
44.375 -0.00881682
44.415 0.00740316
44.455 0.0121487
44.495 -0.0187185
44.535 0.0019625
44.575 -0.00619272
44.615 0.0143937
44.655 0.00577684
44.695 0.0112622
44.735 0.005977
44.775 0.0269519
44.815 0.0429315
44.855 0.0566129
44.895 0.0726225
44.935 0.0710909
44.975 0.0748737
45.015 0.0583206
45.055 0.0335774
45.095 0.0508993
45.135 0.0629207
45.175 0.0289242
45.215 0.0187839
45.255 0.0218336
45.295 0.00240987
45.335 0.0110559
45.375 0.015855
45.415 -0.00592522
45.455 0.0087405
45.495 -0.00449531
45.535 -0.00250439
45.575 0.00233559
45.615 0.0110472
45.655 0.00133186
45.695 -0.00412511
45.735 0.0187727
45.775 0.0275458
45.815 0.0219111
45.855 0.0228259
45.895 0.0299282
45.935 0.0770465
45.975 0.119464
46.015 0.13776
46.055 0.137059
46.095 0.0927748
46.135 0.104237
46.175 0.189714
46.215 0.342316
46.255 0.441251
46.295 0.411679
46.335 0.268008
46.375 0.143593
46.415 0.0721059
46.455 0.0460039
46.495 0.0158237
46.535 0.0293506
46.575 0.0195105
46.615 0.0231816
46.655 -0.00479245
46.695 0.000830144
46.735 0.00327798
46.775 0.0105869
46.815 0.00670568
46.855 -0.0185209
46.895 0.0132266
46.935 0.00095059
46.975 0.0210756
47.015 0.0284218
47.055 0.00388287
47.095 0.0288489
47.135 0.0201989
47.175 0.0290296
47.215 0.0215115
47.255 0.0391357
47.295 0.0201142
47.335 0.0212058
47.375 0.00817723
47.415 0.0229922
47.455 0.0196591
47.495 0.0270143
47.535 0.0253922
47.575 0.0490838
47.615 0.0782945
47.655 0.116779
47.695 0.154931
47.735 0.190442
47.775 0.211336
47.815 0.232007
47.855 0.236224
47.895 0.257848
47.935 0.259671
47.975 0.255267
48.015 0.249311
48.055 0.225613
48.095 0.234538
48.135 0.230526
48.175 0.309611
48.215 0.562369
48.255 0.858683
48.295 0.95292
48.335 0.797709
48.375 0.696434
48.415 0.661825
48.455 0.791039
48.495 1.09471
48.535 1.62084
48.575 2.08991
48.615 2.0691
48.655 1.59412
48.695 0.929518
48.735 0.496237
48.775 0.243033
48.815 0.129286
48.855 0.093677
48.895 0.0875271
48.935 0.0672607
48.975 0.0357595
49.015 0.055043
49.055 0.0444181
49.095 0.0432202
49.135 0.0472403
49.175 0.0528838
49.215 0.0330941
49.255 0.0316627
49.295 0.0424757
49.335 0.025145
49.375 0.0329267
49.415 0.0342122
49.455 0.036521
49.495 0.0429754
49.535 0.060497
49.575 0.0803841
49.615 0.129647
49.655 0.177148
49.695 0.240028
49.735 0.3035
49.775 0.316402
49.815 0.38501
49.855 0.583714
49.895 0.847831
49.935 1.13422
49.975 1.3832
50.015 1.63575
50.055 1.77805
50.095 1.59361
50.135 1.1143
50.175 0.676807
50.215 0.343754
50.255 0.162174
50.295 0.0771168
50.335 0.0467853
50.375 0.0420075
50.415 0.0380508
50.455 0.0199193
50.495 0.00722436
50.535 0.0256089
50.575 0.0194106
50.615 0.00428889
50.655 0.00663457
50.695 -0.00264802
50.735 0.00520932
50.775 0.00329092
50.815 -0.00792502
50.855 0.0051699
50.895 0.00939041
50.935 -2.25088e-05
50.975 0.00742287
51.015 -0.00859645
51.055 -0.000451352
51.095 -0.00617697
51.135 -0.00847965
51.175 -0.00413315
51.215 0.00393938
51.255 0.0108837
51.295 0.0102501
51.335 0.0233478
51.375 0.00984854
51.415 0.00460322
51.455 0.00219418
51.495 0.0146864
51.535 0.0272336
51.575 0.0364519
51.615 0.0366422
51.655 0.0377544
51.695 0.0511969
51.735 0.0796992
51.775 0.121785
51.815 0.215514
51.855 0.323129
51.895 0.385636
51.935 0.416007
51.975 0.418886
52.015 0.417283
52.055 0.416646
52.095 0.434605
52.135 0.421511
52.175 0.378924
52.215 0.327875
52.255 0.253902
52.295 0.18479
52.335 0.154826
52.375 0.0958098
52.415 0.0553392
52.455 0.042186
52.495 0.016329
52.535 0.00505571
52.575 -0.0122888
52.615 -0.00656261
52.655 -0.0096729
52.695 0.0269825
52.735 0.079544
52.775 0.139923
52.815 0.128147
52.855 0.0818289
52.895 0.0347214
52.935 0.00784531
52.975 0.00880195
53.015 0.0297697
53.055 0.0257338
53.095 0.0825143
53.135 0.106726
53.175 0.119325
53.215 0.105862
53.255 0.116196
53.295 0.133749
53.335 0.179155
53.375 0.246028
53.415 0.301532
53.455 0.291026
53.495 0.253842
53.535 0.183271
53.575 0.141048
53.615 0.0970831
53.655 0.0633258
53.695 0.0381825
53.735 0.00744389
53.775 0.00149162
53.815 -0.0146589
53.855 -0.00142995
53.895 -0.00651655
53.935 0.00438454
53.975 0.0104086
54.015 0.0268104
54.055 0.0337296
54.095 0.0346771
54.135 0.0449861
54.175 0.0396111
54.215 0.0234004
54.255 0.00807307
54.295 0.0171939
54.335 0.00537568
54.375 0.0266743
54.415 0.0666724
54.455 0.11726
54.495 0.169268
54.535 0.177593
54.575 0.163768
54.615 0.16983
54.655 0.174963
54.695 0.150757
54.735 0.122789
54.775 0.0834689
54.815 0.0755462
54.855 0.0567837
54.895 0.0188861
54.935 0.0151153
54.975 -0.00742677
55.015 -0.0070833
55.055 0.0024793
55.095 0.0143909
55.135 0.00252861
55.175 -0.0179053
55.215 0.00916235
55.255 0.00234181
55.295 0.0190541
55.335 0.0318976
55.375 0.0503737
55.415 0.0741962
55.455 0.143114
55.495 0.197855
55.535 0.29103
55.575 0.375562
55.615 0.418366
55.655 0.37311
55.695 0.352347
55.735 0.289553
55.775 0.262503
55.815 0.22939
55.855 0.210051
55.895 0.152169
55.935 0.128804
55.975 0.111501
56.015 0.064662
56.055 0.0371527
56.095 0.0221179
56.135 0.000769093
56.175 -0.00476059
56.215 -0.00304308
56.255 -0.002742
56.295 -0.00345463
56.335 0.00422189
56.375 0.019381
56.415 0.0244384
56.455 0.0123923
56.495 0.00394423
56.535 0.00047285
56.575 0.00431362
56.615 0.006174
56.655 -0.00651057
56.695 -0.00179247
56.735 -0.000805241
56.775 -0.0112828
56.815 0.00960389
56.855 -0.00627138
56.895 0.0171597
56.935 0.0220065
56.975 -0.00100928
57.015 0.0134985
57.055 0.00214846
57.095 -0.00476587
57.135 -0.00773291
57.175 -0.00883995
57.215 0.00769293
57.255 0.000585904
57.295 0.00297507
57.335 0.00719518
57.375 0.0105186
57.415 -0.00629232
57.455 -0.00836216
57.495 -0.00905382
57.535 0.010904
57.575 -0.0129025
57.615 0.0141295
57.655 0.00925849
57.695 -0.000366898
57.735 0.00296647
57.775 0.0120642
57.815 -0.0112896
57.855 0.0194874
57.895 0.00694417
57.935 0.00776101
57.975 0.00403364
58.015 -0.000202726
58.055 0.0270115
58.095 -0.00590171
58.135 0.00529066
58.175 0.0109941
58.215 -0.0066753
58.255 0.00704389
58.295 -0.00687761
58.335 0.0142955
58.375 0.00926002
58.415 0.00646071
58.455 0.00578502
58.495 -0.00307618
58.535 0.00960508
58.575 0.016002
58.615 0.00730369
58.655 0.00900943
58.695 0.016927
58.735 0.0237909
58.775 0.0226673
58.815 0.0158993
58.855 -7.34446e-05
58.895 0.00663909
58.935 0.0212891
58.975 0.00803498
59.015 0.00287313
59.055 0.00785762
59.095 -0.00279895
59.135 -0.00460385
59.175 -0.00216193
59.215 0.0100169
59.255 0.000491527
59.295 -0.000969938
59.335 -0.00398059
59.375 -0.0162162
59.415 0.0290669
59.455 0.017275
59.495 0.0378026
59.535 0.0529699
59.575 0.0819648
59.615 0.113281
59.655 0.145401
59.695 0.219132
59.735 0.258835
59.775 0.170153
59.815 0.0951204
59.855 0.0707834
59.895 0.0450543
59.935 0.0323022
59.975 0.0269279
60.015 0.0211177
60.055 0.0137313
60.095 0.00495847
60.135 0.00316703
60.175 0.0161818
60.215 0.0305784
60.255 0.0259531
60.295 0.014723
60.335 0.0352312
60.375 0.0366419
60.415 0.0479
60.455 0.086277
60.495 0.0945612
60.535 0.131297
60.575 0.121055
60.615 0.090468
60.655 0.111586
60.695 0.108644
60.735 0.0927638
60.775 0.094805
60.815 0.061174
60.855 0.052508
60.895 0.029212
60.935 0.043568
60.975 0.0302513
61.015 0.0119276
61.055 0.0146314
61.095 3.86111e-05
61.135 0.00600246
61.175 -0.0158524
61.215 0.00745352
61.255 0.0104857
61.295 -0.00080164
61.335 -0.00285232
61.375 -0.00386909
61.415 0.0189517
61.455 0.0253471
61.495 0.0118517
61.535 0.0087229
61.575 0.0194385
61.615 0.0213368
61.655 0.0526891
61.695 0.0825871
61.735 0.161571
61.775 0.238345
61.815 0.241245
61.855 0.221084
61.895 0.184198
61.935 0.198541
61.975 0.211723
62.015 0.230611
62.055 0.232801
62.095 0.254012
62.135 0.304831
62.175 0.351496
62.215 0.36242
62.255 0.301251
62.295 0.237161
62.335 0.191296
62.375 0.187924
62.415 0.148889
62.455 0.0751979
62.495 0.01291
62.535 0.0174008
62.575 0.00194554
62.615 0.00465409
62.655 -7.87762e-05
62.695 0.000113109
62.735 -0.00383117
62.775 -0.00191813
62.815 -0.00958273
62.855 0.00380163
62.895 0.00253375
62.935 0.00510193
62.975 -0.00267959
63.015 -0.00520891
63.055 -0.0012832
63.095 -0.0061563
63.135 -0.00637955
63.175 -0.00469358
63.215 0.00600278
63.255 0.0154351
63.295 0.0156179
63.335 0.00923398
63.375 0.0233662
63.415 0.0563757
63.455 0.0390083
63.495 0.0378971
63.535 0.0524549
63.575 0.0483704
63.615 0.0454423
63.655 0.0495945
63.695 0.0542371
63.735 0.0749834
63.775 0.0804961
63.815 0.0775555
63.855 0.0683025
63.895 0.0863743
63.935 0.0748728
63.975 0.0147386
64.015 0.00414559
64.055 0.0101132
64.095 0.00653949
64.135 -0.0131046
64.175 0.00870821
64.215 -0.00346743
64.255 0.00574827
64.295 0.0292718
64.335 0.0246002
64.375 0.0392987
64.415 0.0161693
64.455 0.0302268
64.495 0.0539274
64.535 0.0603913
64.575 0.110408
64.615 0.153865
64.655 0.180912
64.695 0.15143
64.735 0.107361
64.775 0.0820276
64.815 0.0752902
64.855 0.0377244
64.895 0.0374234
64.935 0.0264426
64.975 0.0363762
65.015 0.0189781
65.055 0.00897633
65.095 -8.31297e-05
65.135 0.0122189
65.175 0.0133292
65.215 -0.00730595
65.255 0.0146079
65.295 0.0307117
65.335 -0.00310567
65.375 0.0116116
65.415 0.00314866
65.455 -0.00386385
65.495 0.0062926
65.535 -0.00791029
65.575 0.0108285
65.615 0.000606777
65.655 -0.0154834
65.695 -0.00187882
65.735 -0.005443
65.775 0.00291595
65.815 0.0109477
65.855 0.0197817
65.895 -0.00430525
65.935 0.021587
65.975 0.0252405
66.015 0.026487
66.055 0.0213897
66.095 0.0363441
66.135 0.0442402
66.175 0.0612948
66.215 0.0444777
66.255 0.059349
66.295 0.0469365
66.335 0.0497312
66.375 0.0439039
66.415 0.0477226
66.455 0.0417346
66.495 0.0572258
66.535 0.0393736
66.575 0.068185
66.615 0.099392
66.655 0.122622
66.695 0.104411
66.735 0.056319
66.775 0.0526899
66.815 0.0447384
66.855 0.0520476
66.895 0.030407
66.935 0.0406221
66.975 0.0123123
67.015 0.0118048
67.055 0.0168923
67.095 0.0017113
67.135 -0.0046698
67.175 0.00930282
67.215 0.00395682
67.255 0.000509634
67.295 -0.0018405
67.335 -0.00346268
67.375 -0.00158645
67.415 -0.00383709
67.455 0.00262089
67.495 -0.0115459
67.535 -0.0100943
67.575 -0.000516191
67.615 0.00214004
67.655 0.0129965
67.695 0.00810874
67.735 0.00619369
67.775 0.006476
67.815 0.00182044
67.855 0.0114541
67.895 0.010266
67.935 0.0210478
67.975 0.0143482
68.015 0.0302732
68.055 0.0342912
68.095 0.0305536
68.135 0.0510328
68.175 0.0569935
68.215 0.0580565
68.255 0.114731
68.295 0.223542
68.335 0.372241
68.375 0.489819
68.415 0.463265
68.455 0.372344
68.495 0.252638
68.535 0.162681
68.575 0.0890435
68.615 0.0546027
68.655 0.039686
68.695 0.0130304
68.735 0.0214387
68.775 0.0338292
68.815 0.0627556
68.855 0.0613925
68.895 0.0604198
68.935 0.0558638
68.975 0.0438708
69.015 0.0689584
69.055 0.0911095
69.095 0.107948
69.135 0.118293
69.175 0.109843
69.215 0.0669459
69.255 0.0480013
69.295 0.0467464
69.335 0.0461049
69.375 0.0275953
69.415 0.0343624
69.455 0.0204328
69.495 0.0193321
69.535 0.0166264
69.575 0.0150033
69.615 0.0171712
69.655 -0.00324102
69.695 -0.00565909
69.735 0.00442541
69.775 -0.00160014
69.815 -0.00156632
69.855 -0.0068829
69.895 -0.0143817
69.935 0.00378122
69.975 0.00316383
70.015 0.0179991
70.055 0.0072912
70.095 0.0402162
70.135 0.0288943
70.175 0.0252155
70.215 0.0535108
70.255 0.0980008
70.295 0.115106
70.335 0.166969
70.375 0.190644
70.415 0.185512
70.455 0.173721
70.495 0.162798
70.535 0.15307
70.575 0.104241
70.615 0.0856189
70.655 0.0619135
70.695 0.0623164
70.735 0.0675218
70.775 0.0640713
70.815 0.064666
70.855 0.0605842
70.895 0.0546764
70.935 0.0296211
70.975 0.0141516
71.015 0.0173915
71.055 -0.00387361
71.095 -0.0154914