File: data/xrd/xy/2019-09-24T15_41_07.555823+00_00_LBL_B5.xy
'Id: "" Comment: "Integrate frame butane14dia_01_001.gfrmwith cursor Wedge Cursor #1" Operator: "UC Berkeley" Anode: "Co" Scantype: "TwoTheta" TimePerStep: "600"
13.655 -0.0252218
13.695 -0.00825726
13.735 0.00745404
13.775 0.0422196
13.815 0.0215734
13.855 0.0188098
13.895 0.06201
13.935 -0.00676752
13.975 0.0334394
14.015 0.0533884
14.055 0.0104714
14.095 0.0312571
14.135 0.018304
14.175 0.0195047
14.215 0.0728976
14.255 0.0747197
14.295 0.0406892
14.335 0.0230279
14.375 0.0294281
14.415 0.100284
14.455 0.0589189
14.495 0.050838
14.535 0.0696612
14.575 0.058795
14.615 0.00264054
14.655 0.0608458
14.695 0.066536
14.735 0.0380146
14.775 0.0152838
14.815 0.0946895
14.855 0.0356399
14.895 0.0459069
14.935 0.0366633
14.975 0.0576777
15.015 0.0347377
15.055 0.0469739
15.095 0.0445392
15.135 0.0668935
15.175 0.0452278
15.215 0.0190353
15.255 0.0310026
15.295 0.0231986
15.335 0.0207391
15.375 0.0370152
15.415 0.01918
15.455 0.0481867
15.495 0.0246225
15.535 -0.0036183
15.575 0.00508723
15.615 0.0274148
15.655 0.000836359
15.695 0.0495888
15.735 0.0093116
15.775 0.0157746
15.815 0.00364375
15.855 0.0040504
15.895 0.0140333
15.935 0.00178332
15.975 0.0491176
16.015 0.0148304
16.055 0.00790695
16.095 0.0215877
16.135 0.0268268
16.175 0.036965
16.215 0.0261059
16.255 0.039498
16.295 0.00893349
16.335 0.0158993
16.375 0.0318373
16.415 0.0342927
16.455 0.0362091
16.495 0.0287863
16.535 0.0156127
16.575 0.0206509
16.615 0.0145695
16.655 0.036718
16.695 0.00519324
16.735 0.00466922
16.775 0.0434034
16.815 -0.00913139
16.855 0.0854551
16.895 -0.00281342
16.935 0.0709708
16.975 0.0396854
17.015 0.0202545
17.055 0.0738755
17.095 0.0419861
17.135 0.0563986
17.175 0.0234311
17.215 0.0531866
17.255 0.0125766
17.295 0.0145512
17.335 0.0504024
17.375 0.054597
17.415 0.0186456
17.455 0.0139994
17.495 0.0470595
17.535 0.0158616
17.575 0.0168353
17.615 0.0664327
17.655 -0.011878
17.695 0.0118938
17.735 0.0170206
17.775 0.0837783
17.815 0.0437927
17.855 0.0656808
17.895 0.0439715
17.935 0.0647655
17.975 0.0521762
18.015 0.0270675
18.055 0.0459246
18.095 0.0400676
18.135 0.00575295
18.175 0.0257442
18.215 0.039517
18.255 0.0498307
18.295 0.0568177
18.335 0.0553681
18.375 0.063452
18.415 0.0367259
18.455 0.0539661
18.495 0.0685022
18.535 0.0305449
18.575 -0.00105992
18.615 0.0627538
18.655 -0.0117031
18.695 0.0195959
18.735 0.0781342
18.775 0.023956
18.815 0.0428283
18.855 0.00150685
18.895 0.0629992
18.935 0.0164043
18.975 0.0243265
19.015 0.0605953
19.055 0.072677
19.095 0.0505123
19.135 0.0450437
19.175 0.0463709
19.215 0.0341947
19.255 0.0452673
19.295 0.0705704
19.335 0.0581061
19.375 0.0471959
19.415 0.0332458
19.455 0.0701769
19.495 0.0474771
19.535 0.0430777
19.575 0.0409899
19.615 0.0201351
19.655 0.0103682
19.695 0.0271385
19.735 0.0649026
19.775 0.0524706
19.815 0.0444113
19.855 0.0491132
19.895 0.0293132
19.935 0.0127032
19.975 0.0166202
20.015 0.0203945
20.055 0.0523673
20.095 0.0475032
20.135 0.0240179
20.175 0.0605689
20.215 0.0165139
20.255 0.049249
20.295 0.0392491
20.335 0.046863
20.375 0.0734172
20.415 0.0311279
20.455 0.033446
20.495 0.0164458
20.535 0.0276104
20.575 0.0439396
20.615 0.0978319
20.655 0.0912039
20.695 0.0440144
20.735 0.086099
20.775 0.0785264
20.815 0.091048
20.855 0.0847781
20.895 0.151656
20.935 0.168617
20.975 0.127705
21.015 0.190879
21.055 0.21075
21.095 0.199433
21.135 0.174428
21.175 0.149281
21.215 0.121244
21.255 0.0531634
21.295 0.0560883
21.335 0.0125252
21.375 0.0266628
21.415 0.0389277
21.455 0.043692
21.495 0.0315465
21.535 -0.0125536
21.575 0.0348596
21.615 0.0640442
21.655 0.0447992
21.695 0.0537068
21.735 0.0365904
21.775 0.0159597
21.815 0.0333349
21.855 0.0120651
21.895 -0.00638411
21.935 0.0213593
21.975 0.0712438
22.015 0.000361422
22.055 0.0342833
22.095 0.0461328
22.135 0.0653024
22.175 0.0155396
22.215 0.0379842
22.255 0.069088
22.295 0.015307
22.335 0.0332851
22.375 0.0386269
22.415 0.0493013
22.455 0.0169993
22.495 -0.0132937
22.535 0.0442339
22.575 0.0469883
22.615 0.0101564
22.655 0.0593511
22.695 0.0423777
22.735 0.0379363
22.775 0.0250371
22.815 0.02115
22.855 0.0230922
22.895 0.00200356
22.935 0.00395305
22.975 0.015894
23.015 -0.00261619
23.055 -0.00858332
23.095 0.0403135
23.135 0.00624859
23.175 0.0364079
23.215 0.00486441
23.255 0.0130186
23.295 0.0324146
23.335 0.016221
23.375 0.00268984
23.415 0.0187043
23.455 0.0126501
23.495 0.0285262
23.535 0.0524039
23.575 0.0140659
23.615 0.00973633
23.655 -0.0093832
23.695 0.0367667
23.735 0.00792518
23.775 0.0689603
23.815 -0.0202172
23.855 0.0395292
23.895 0.0307605
23.935 0.0242583
23.975 0.0246856
24.015 0.098852
24.055 0.16426
24.095 0.22275
24.135 0.364426
24.175 0.451646
24.215 0.421147
24.255 0.279617
24.295 0.138919
24.335 0.088925
24.375 0.00286996
24.415 0.00858798
24.455 -0.0136794
24.495 0.00751679
24.535 0.0397689
24.575 0.00578279
24.615 0.00575528
24.655 0.0369613
24.695 0.0126913
24.735 0.0323496
24.775 0.0559659
24.815 0.122105
24.855 0.189323
24.895 0.38824
24.935 0.568829
24.975 0.582835
25.015 0.5366
25.055 0.422317
25.095 0.258499
25.135 0.149992
25.175 0.071464
25.215 0.0560007
25.255 0.0356993
25.295 0.0120294
25.335 0.0251595
25.375 0.0150027
25.415 -0.000431986
25.455 -0.0219541
25.495 0.0263771
25.535 0.0107842
25.575 0.0059326
25.615 0.0375074
25.655 0.0112012
25.695 0.000299279
25.735 -0.00081541
25.775 -0.0210062
25.815 0.0262412
25.855 0.0355766
25.895 0.034803
25.935 0.0840496
25.975 0.136573
26.015 0.275565
26.055 0.358881
26.095 0.553909
26.135 0.667712
26.175 0.649683
26.215 0.554809
26.255 0.427225
26.295 0.383541
26.335 0.540511
26.375 0.921267
26.415 1.41428
26.455 1.8468
26.495 1.73902
26.535 1.11665
26.575 0.56772
26.615 0.265722
26.655 0.09207
26.695 0.0677747
26.735 0.0811062
26.775 0.0318952
26.815 0.0246553
26.855 0.0121867
26.895 0.0108843
26.935 -0.00138531
26.975 -0.00756988
27.015 0.046536
27.055 0.0399808
27.095 0.010919
27.135 0.00436581
27.175 0.0118614
27.215 0.000705158
27.255 0.0162214
27.295 0.0183139
27.335 0.0245732
27.375 0.0232593
27.415 0.0352079
27.455 0.0231449
27.495 0.0240844
27.535 0.0162294
27.575 0.0318552
27.615 -0.00222762
27.655 -0.00394011
27.695 0.0253528
27.735 0.0191126
27.775 0.0379516
27.815 -0.0126919
27.855 -0.00131833
27.895 0.0087929
27.935 0.0124097
27.975 0.0154832
28.015 0.0204235
28.055 0.0193022
28.095 0.0211562
28.135 0.0299711
28.175 0.0516719
28.215 0.028102
28.255 0.0321474
28.295 0.039323
28.335 0.116793
28.375 0.192572
28.415 0.338298
28.455 0.665852
28.495 0.960829
28.535 1.109
28.575 1.04163
28.615 0.736056
28.655 0.423268
28.695 0.240447
28.735 0.117288
28.775 0.0536762
28.815 0.0659375
28.855 0.0734445
28.895 0.0934084
28.935 0.132726
28.975 0.189556
29.015 0.156974
29.055 0.127384
29.095 0.113502
29.135 0.0757987
29.175 0.0593155
29.215 0.0924506
29.255 0.0689589
29.295 0.0543363
29.335 0.0156166
29.375 0.0365103
29.415 0.0285018
29.455 0.0213407
29.495 -0.00543917
29.535 0.046835
29.575 0.0300913
29.615 0.000451656
29.655 0.00828845
29.695 0.0172488
29.735 0.0414061
29.775 -0.0151805
29.815 0.0220387
29.855 0.0485204
29.895 0.0355373
29.935 0.0406009
29.975 0.0437408
30.015 0.047981
30.055 0.0823618
30.095 0.0442419
30.135 0.0915401
30.175 0.0331583
30.215 0.0426103
30.255 0.0101975
30.295 0.0251164
30.335 0.0299424
30.375 0.041585
30.415 0.0518724
30.455 0.0935155
30.495 0.181095
30.535 0.339465
30.575 0.496325
30.615 0.632711
30.655 0.673213
30.695 0.556436
30.735 0.406936
30.775 0.239785
30.815 0.132365
30.855 0.0521804
30.895 0.0211663
30.935 0.0260155
30.975 0.0159818
31.015 0.0152692
31.055 -0.00769874
31.095 0.000844712
31.135 0.00774598
31.175 -0.0181413
31.215 0.0251151
31.255 0.0127857
31.295 0.0157146
31.335 0.0084485
31.375 0.0262551
31.415 0.00930026
31.455 0.0225954
31.495 0.0236294
31.535 0.0026985
31.575 0.0212594
31.615 0.0558058
31.655 0.0484962
31.695 0.0461004
31.735 0.0811892
31.775 0.0672881
31.815 0.0374812
31.855 0.0341949
31.895 0.0198372
31.935 0.00378926
31.975 0.00399082
32.015 -4.68193e-05
32.055 0.0322516
32.095 0.0446559
32.135 0.0330603
32.175 -0.00877872
32.215 0.0529911
32.255 0.0700804
32.295 0.0627196
32.335 0.129998
32.375 0.230701
32.415 0.402563
32.455 0.697373
32.495 1.02956
32.535 1.08614
32.575 1.06167
32.615 0.907024
32.655 0.589085
32.695 0.342851
32.735 0.173166
32.775 0.0822881
32.815 0.0341078
32.855 0.0537032
32.895 0.0185687
32.935 0.0318606
32.975 0.0138602
33.015 0.0162857
33.055 0.0137778
33.095 0.0056532
33.135 0.0340216
33.175 0.040107
33.215 0.0592991
33.255 0.0831649
33.295 0.0978072
33.335 0.0913889
33.375 0.0854271
33.415 0.0347765
33.455 0.00901395
33.495 0.027223
33.535 0.0137943
33.575 0.0135145
33.615 -0.0145985
33.655 0.0106327
33.695 0.0208086
33.735 0.00985881
33.775 -0.0058158
33.815 -0.00177376
33.855 0.0205206
33.895 0.0103564
33.935 -0.00242303
33.975 0.00358687
34.015 -0.00593369
34.055 -0.00531661
34.095 0.00541592
34.135 0.0173976
34.175 0.00732377
34.215 0.00806057
34.255 0.0163735
34.295 0.0227771
34.335 0.0190244
34.375 0.0261761
34.415 0.0345228
34.455 0.0614305
34.495 0.087338
34.535 0.152468
34.575 0.307988
34.615 0.430913
34.655 0.518274
34.695 0.532075
34.735 0.518068
34.775 0.553818
34.815 0.56479
34.855 0.543243
34.895 0.458679
34.935 0.371585
34.975 0.215752
35.015 0.116825
35.055 0.0593199
35.095 0.0175239
35.135 0.0289583
35.175 0.00136928
35.215 0.0142471
35.255 0.0129163
35.295 -0.00816502
35.335 0.0284577
35.375 0.00253983
35.415 -0.00145589
35.455 0.00940317
35.495 0.0198718
35.535 0.0617218
35.575 0.0469554
35.615 0.0501601
35.655 0.0532828
35.695 0.0439924
35.735 0.0304961
35.775 0.0281485
35.815 -0.00928537
35.855 0.0120953
35.895 0.000458076
35.935 -0.00188655
35.975 0.00627876
36.015 -0.0162512
36.055 0.00620741
36.095 0.00695994
36.135 0.0289289
36.175 0.0018336
36.215 0.0140316
36.255 0.0238496
36.295 0.0298166
36.335 0.0459867
36.375 0.0349047
36.415 0.0439104
36.455 0.043662
36.495 0.0441611
36.535 0.0708619
36.575 0.0937754
36.615 0.162354
36.655 0.26341
36.695 0.444135
36.735 0.729894
36.775 1.12941
36.815 1.51508
36.855 1.77796
36.895 1.77092
36.935 1.44509
36.975 0.918536
37.015 0.510458
37.055 0.218337
37.095 0.0988325
37.135 0.0718034
37.175 0.0304395
37.215 0.0292317
37.255 0.00359657
37.295 0.0165979
37.335 0.0203662
37.375 0.0246464
37.415 0.0304957
37.455 0.0284781
37.495 0.030077
37.535 0.0352161
37.575 0.0253757
37.615 0.0203521
37.655 0.00701491
37.695 0.0105707
37.735 0.00670801
37.775 0.0147575
37.815 0.00301586
37.855 0.01366
37.895 -0.00965242
37.935 -0.0109734
37.975 -0.00296882
38.015 0.0022876
38.055 0.00878992
38.095 0.00141376
38.135 0.0065103
38.175 -0.0056672
38.215 0.0136963
38.255 -0.00824257
38.295 -0.0128461
38.335 0.00870566
38.375 0.0157243
38.415 0.0211455
38.455 -0.0114209
38.495 -0.00107443
38.535 0.0164545
38.575 0.00278996
38.615 -0.0109141
38.655 -0.0127124
38.695 -0.0153477
38.735 -0.0119531
38.775 0.00814282
38.815 -0.0136705
38.855 -0.000554414
38.895 -0.0151625
38.935 -0.0124424
38.975 0.022227
39.015 -0.00620558
39.055 0.00541195
39.095 -0.0115493
39.135 -0.0126882
39.175 0.00343557
39.215 -0.00313043
39.255 0.00684922
39.295 0.00397779
39.335 0.0129937
39.375 0.000833062
39.415 0.0299284
39.455 0.0460608
39.495 0.110189
39.535 0.194547
39.575 0.325725
39.615 0.474109
39.655 0.55544
39.695 0.59104
39.735 0.511144
39.775 0.369805
39.815 0.231306
39.855 0.127972
39.895 0.0700255
39.935 0.000432111
39.975 0.00539363
40.015 0.00889168
40.055 0.0163612
40.095 0.0113054
40.135 -0.00799766
40.175 0.014409
40.215 0.0194511
40.255 0.0378696
40.295 0.00982869
40.335 0.0522974
40.375 0.0846231
40.415 0.122318
40.455 0.178453
40.495 0.214205
40.535 0.199331
40.575 0.182413
40.615 0.130797
40.655 0.0651547
40.695 0.0488589
40.735 0.0170776
40.775 0.0075804
40.815 0.0244421
40.855 0.00907225
40.895 0.000926939
40.935 0.00494115
40.975 0.00955618
41.015 -0.0148661
41.055 0.0169065
41.095 0.000850574
41.135 0.00716033
41.175 0.0122261
41.215 -0.00127529
41.255 0.00539481
41.295 0.0168763
41.335 0.034722
41.375 0.0275355
41.415 0.0678266
41.455 0.0825802
41.495 0.175098
41.535 0.270821
41.575 0.423359
41.615 0.514353
41.655 0.528931
41.695 0.440112
41.735 0.32449
41.775 0.242891
41.815 0.137116
41.855 0.0694937
41.895 0.0436457
41.935 0.0406637
41.975 0.00191922
42.015 0.0284794
42.055 0.040972
42.095 0.0783379
42.135 0.103945
42.175 0.176206
42.215 0.318703
42.255 0.440061
42.295 0.626642
42.335 0.783446
42.375 0.784883
42.415 0.69183
42.455 0.542644
42.495 0.39163
42.535 0.216131
42.575 0.105032
42.615 0.0440559
42.655 0.0309087
42.695 0.0361909
42.735 0.017816
42.775 0.0119938
42.815 0.0310856
42.855 0.0506292
42.895 0.0562312
42.935 0.0551774
42.975 0.0361415
43.015 0.0516408
43.055 0.0499442
43.095 0.019525
43.135 0.00442604
43.175 7.3971e-05
43.215 0.00991768
43.255 0.024482
43.295 0.0165736
43.335 0.00845264
43.375 0.00893075
43.415 0.0132037
43.455 0.01529
43.495 -0.00603385
43.535 0.01945
43.575 0.0175645
43.615 -0.00256355
43.655 0.01113
43.695 0.0042751
43.735 0.0163735
43.775 0.00253121
43.815 -0.0188467
43.855 0.000592627
43.895 -0.00544728
43.935 0.0156439
43.975 0.0292047
44.015 0.0143129
44.055 0.00325334
44.095 -0.00234466
44.135 0.00564192
44.175 0.000289277
44.215 0.0165676
44.255 0.0200634
44.295 0.0254665
44.335 0.0232004
44.375 0.0899394
44.415 0.0812639
44.455 0.0986664
44.495 0.0992068
44.535 0.114414
44.575 0.155757
44.615 0.177073
44.655 0.175155
44.695 0.221909
44.735 0.266372
44.775 0.260865
44.815 0.265443
44.855 0.306373
44.895 0.374056
44.935 0.491119
44.975 0.618618
45.015 0.593231
45.055 0.50301
45.095 0.374139
45.135 0.241609
45.175 0.130901
45.215 0.0703325
45.255 0.072636
45.295 0.0606608
45.335 0.0811272
45.375 0.116787
45.415 0.145502
45.455 0.184254
45.495 0.209325
45.535 0.15934
45.575 0.163813
45.615 0.162861
45.655 0.120942
45.695 0.133614
45.735 0.153526
45.775 0.147354
45.815 0.172776
45.855 0.207171
45.895 0.257903
45.935 0.266209
45.975 0.293029
46.015 0.320117
46.055 0.29443
46.095 0.287484
46.135 0.244736
46.175 0.208799
46.215 0.179717
46.255 0.1258
46.295 0.0819024
46.335 0.0503797
46.375 0.0239834
46.415 0.0207626
46.455 -0.00583251
46.495 0.00026933
46.535 -0.0165947
46.575 -0.0177645
46.615 -0.00633343
46.655 0.0113178
46.695 -0.00313484
46.735 0.00273037
46.775 -0.00548003
46.815 -0.00836929
46.855 -0.0131125
46.895 -0.00788487
46.935 -0.0114629
46.975 0.00347802
47.015 -0.0184878
47.055 0.0132045
47.095 -0.00102179
47.135 0.000988841
47.175 0.014194
47.215 0.00288636
47.255 0.00507271
47.295 0.0181624
47.335 -0.0119952
47.375 -0.00721815
47.415 -0.00353775
47.455 -0.00501201
47.495 0.00692773
47.535 0.0242052
47.575 0.0549726
47.615 0.062802
47.655 0.0698697
47.695 0.102534
47.735 0.104283
47.775 0.128996
47.815 0.108104
47.855 0.115536
47.895 0.0980315
47.935 0.0857444
47.975 0.0608924
48.015 0.0502702
48.055 0.0255808
48.095 0.0265781
48.135 0.00548737
48.175 0.0113778
48.215 0.0182592
48.255 0.0132469
48.295 -0.000745434
48.335 -0.00858155
48.375 0.00510389
48.415 -0.00501279
48.455 1.92659e-05
48.495 0.00746059
48.535 -0.00229119
48.575 0.0242346
48.615 0.0125075
48.655 0.0257316
48.695 0.0466207
48.735 0.0657128
48.775 0.0515487
48.815 0.0886058
48.855 0.0778036
48.895 0.0722772
48.935 0.0680308
48.975 0.0498112
49.015 0.0422275
49.055 0.0478723
49.095 0.034483
49.135 0.0602
49.175 0.0619928
49.215 0.0920269
49.255 0.128231
49.295 0.181155
49.335 0.247075
49.375 0.307927
49.415 0.34911
49.455 0.387181
49.495 0.404089
49.535 0.353625
49.575 0.304895
49.615 0.245675
49.655 0.181551
49.695 0.146372
49.735 0.114853
49.775 0.0685214
49.815 0.0442411
49.855 0.0697888
49.895 0.0351107
49.935 0.0382717
49.975 0.0253387
50.015 0.016538
50.055 0.0116388
50.095 0.0210922
50.135 0.0293475
50.175 0.0595972
50.215 0.0869168
50.255 0.126349
50.295 0.170575
50.335 0.213809
50.375 0.266644
50.415 0.291936
50.455 0.319867
50.495 0.310945
50.535 0.261822
50.575 0.223355
50.615 0.180329
50.655 0.145338
50.695 0.154165
50.735 0.148618
50.775 0.147962
50.815 0.114152
50.855 0.0655639
50.895 0.0410246
50.935 0.0306934
50.975 0.0107559
51.015 -0.000864346
51.055 0.00512923
51.095 0.0150416
51.135 0.0119347
51.175 0.0267289
51.215 0.0577617
51.255 0.0784883
51.295 0.0793844
51.335 0.0743675
51.375 0.059495
51.415 0.0412149
51.455 0.0190305
51.495 0.008934
51.535 -0.00167212
51.575 -0.00160052
51.615 0.00146039
51.655 -0.0107672
51.695 -0.000616833
51.735 -0.00284511
51.775 0.00651846
51.815 0.0117643
51.855 0.00707529
51.895 0.00180113
51.935 0.00904281
51.975 -0.00387352
52.015 -0.00794179
52.055 0.00503062
52.095 -0.00676139
52.135 -0.00561845
52.175 -0.011316
52.215 -0.0153274
52.255 -0.0071887
52.295 -0.0110306
52.335 0.00052694
52.375 -0.00319329
52.415 0.0213537
52.455 -0.00322798
52.495 0.00171232
52.535 0.00280411
52.575 -0.00916035
52.615 0.0138631
52.655 0.00300211
52.695 0.016385
52.735 0.0214364
52.775 0.0346619
52.815 0.0290776
52.855 0.0462724
52.895 0.0408912
52.935 0.0413688
52.975 0.0336092
53.015 0.0460646
53.055 0.035136
53.095 0.0255923
53.135 0.0328923
53.175 0.0472379
53.215 0.0636816
53.255 0.0989902
53.295 0.139458
53.335 0.217506
53.375 0.26134
53.415 0.308747
53.455 0.306156
53.495 0.266228
53.535 0.19197
53.575 0.147896
53.615 0.0809202
53.655 0.0547957
53.695 0.0312726
53.735 0.036995
53.775 0.0545296
53.815 0.0674213
53.855 0.0870801
53.895 0.109671
53.935 0.115142
53.975 0.114438
54.015 0.104129
54.055 0.0993874
54.095 0.101776
54.135 0.132449
54.175 0.23585
54.215 0.489561
54.255 0.807968
54.295 1.03651
54.335 0.992529
54.375 0.775577
54.415 0.505856
54.455 0.308612
54.495 0.200751
54.535 0.116124
54.575 0.0963049
54.615 0.052033
54.655 0.0326297
54.695 0.0143185
54.735 -0.0014378
54.775 -0.00863477
54.815 -0.00446374
54.855 0.00172609
54.895 -0.00430772
54.935 0.0178005
54.975 0.0401153
55.015 0.0475981
55.055 0.0580863
55.095 0.0521419
55.135 0.0790173
55.175 0.0624906
55.215 0.0588598
55.255 0.0447445
55.295 0.068925
55.335 0.0611604
55.375 0.0485937
55.415 0.0414821
55.455 0.0406715
55.495 0.036764
55.535 0.0499939
55.575 0.0335255
55.615 0.033583
55.655 0.0306723
55.695 0.0221497
55.735 0.0139222
55.775 0.0344097
55.815 0.0261078
55.855 0.046862
55.895 0.0364092
55.935 0.0258058
55.975 0.0323723
56.015 0.0261153
56.055 0.0272722
56.095 0.0362364
56.135 0.0337555
56.175 0.0767557
56.215 0.182419
56.255 0.35777
56.295 0.608698
56.335 0.781041
56.375 0.851185
56.415 0.727573
56.455 0.580547
56.495 0.442389
56.535 0.327652
56.575 0.273637
56.615 0.208245
56.655 0.154934
56.695 0.129065
56.735 0.093339
56.775 0.110971
56.815 0.0847647
56.855 0.08707
56.895 0.066244
56.935 0.0618604
56.975 0.0680731
57.015 0.0434424
57.055 0.0294901
57.095 0.0460813
57.135 0.0335718
57.175 0.0372413
57.215 0.032492
57.255 0.0178131
57.295 0.0285878
57.335 0.0212165
57.375 0.0042159
57.415 0.0146621
57.455 0.000521825
57.495 0.0182912
57.535 0.00338299
57.575 -0.013738
57.615 0.0223715
57.655 0.021794
57.695 0.0209285
57.735 0.0251221
57.775 0.00945027
57.815 0.00626913
57.855 0.0346658
57.895 0.0536057
57.935 0.0359955
57.975 0.0616709
58.015 0.0900105
58.055 0.108467
58.095 0.1473
58.135 0.200583
58.175 0.276993
58.215 0.368196
58.255 0.451186
58.295 0.456371
58.335 0.440533
58.375 0.362224
58.415 0.277828
58.455 0.197915
58.495 0.130965
58.535 0.0890511
58.575 0.0683433
58.615 0.0504642
58.655 0.0300245
58.695 0.0192774
58.735 0.00828756
58.775 -0.00536103
58.815 0.00791125
58.855 0.0146887
58.895 0.0183059
58.935 0.0150484
58.975 0.02747
59.015 0.0383881
59.055 0.0485961
59.095 0.0532034
59.135 0.0600014
59.175 0.0405179
59.215 0.0629415
59.255 0.0498487
59.295 0.0529593
59.335 0.0532578
59.375 0.0403055
59.415 0.0441789
59.455 0.0671761
59.495 0.0502925
59.535 0.038361
59.575 0.0354252
59.615 0.0188224
59.655 0.0366327
59.695 0.0129506
59.735 0.00276993
59.775 0.00980246
59.815 0.00203847
59.855 -0.000689869
59.895 -0.0124417
59.935 -0.00224588
59.975 -0.00165097
60.015 0.00984697
60.055 0.000892859
60.095 0.0194459
60.135 0.0105136
60.175 0.0167696
60.215 0.0212481
60.255 0.0154725
60.295 0.00393063
60.335 0.00554499
60.375 0.0108788
60.415 0.0103571
60.455 0.0262802
60.495 0.0168967
60.535 0.0494761
60.575 0.0492982
60.615 0.0579312
60.655 0.0590715
60.695 0.0687159
60.735 0.0892284
60.775 0.0836346
60.815 0.0907548
60.855 0.0991185
60.895 0.133211
60.935 0.135181
60.975 0.154978
61.015 0.144557
61.055 0.104009
61.095 0.0532446
61.135 0.0389087
61.175 0.031706
61.215 0.0260502
61.255 0.0195114
61.295 0.00567431
61.335 -0.0159624
61.375 0.0113614
61.415 0.0149162
61.455 0.0247116
61.495 0.0162621
61.535 0.0247065
61.575 0.0161559
61.615 0.0187321
61.655 0.0148943
61.695 0.030439
61.735 0.0193103
61.775 0.0420984
61.815 0.0350379
61.855 0.00878272
61.895 0.0382606
61.935 0.0282811
61.975 0.0616435
62.015 0.0626271
62.055 0.0915251
62.095 0.0728803
62.135 0.103552
62.175 0.0873522
62.215 0.0802688
62.255 0.0844306
62.295 0.0687202
62.335 0.0597082
62.375 0.0281241
62.415 0.0293679
62.455 0.0375064
62.495 0.0130781
62.535 0.0122776
62.575 0.0107308
62.615 0.00223308
62.655 -0.00756184
62.695 0.00278582
62.735 0.00976953
62.775 0.00611866
62.815 -0.0103923
62.855 -0.00996621
62.895 0.00394163
62.935 0.00227819
62.975 0.00711954
63.015 0.0136372
63.055 -0.00274746
63.095 0.0190483
63.135 0.0177761
63.175 -0.00650601
63.215 0.00602214
63.255 -0.0155053
63.295 -0.00124803
63.335 0.0259582
63.375 -0.00229049
63.415 0.00606376
63.455 0.00339996
63.495 -0.00267739
63.535 0.0302093
63.575 0.0137358
63.615 0.000998133
63.655 0.00522335
63.695 0.0066318
63.735 0.00978567
63.775 0.00661462
63.815 0.00753193
63.855 0.00664088
63.895 0.00552116
63.935 0.0251887
63.975 0.0087212
64.015 0.00808265
64.055 0.0143576
64.095 -0.000462918
64.135 0.00835306
64.175 0.00602896
64.215 0.0191143
64.255 -0.000831186
64.295 0.0212448
64.335 0.0225378
64.375 0.0268349
64.415 0.0256934
64.455 0.02255
64.495 0.0405185
64.535 0.0309454
64.575 0.0600636
64.615 0.034518
64.655 0.0481804
64.695 0.0378953
64.735 0.0333852
64.775 0.0359774
64.815 0.0241428
64.855 0.0212946
64.895 0.0159192
64.935 0.00350946
64.975 -0.0024093
65.015 -0.0063563
65.055 0.0154405
65.095 0.00425889
65.135 -0.000242721
65.175 -0.00484169
65.215 -0.00798882
65.255 -0.00502461
65.295 -0.0100045
65.335 -0.00832097
65.375 -0.00616586
65.415 -0.0156159
65.455 0.0108714
65.495 -0.00125478
65.535 0.00018252
65.575 0.0247867
65.615 0.0162819
65.655 0.0223249
65.695 0.0437735
65.735 0.0563577
65.775 0.0755111
65.815 0.0746624
65.855 0.069511
65.895 0.0585222
65.935 0.0773973
65.975 0.0616625
66.015 0.0430056
66.055 0.0353886
66.095 0.0234468
66.135 0.0379508
66.175 0.0322296
66.215 0.0409315
66.255 0.0593386
66.295 0.0430788
66.335 0.0597845
66.375 0.0550899
66.415 0.0718528
66.455 0.0799948
66.495 0.0732917
66.535 0.084201
66.575 0.0939287
66.615 0.108448
66.655 0.121364
66.695 0.130697
66.735 0.128408
66.775 0.128419
66.815 0.120737
66.855 0.117837
66.895 0.116965
66.935 0.117553
66.975 0.113434
67.015 0.0692613
67.055 0.0651233
67.095 0.0586419
67.135 0.0157962
67.175 0.0380187
67.215 0.00530583
67.255 0.0129722
67.295 0.0198851
67.335 -0.00111089
67.375 0.0253101
67.415 0.0104514
67.455 0.0159348
67.495 0.0155969
67.535 0.0194085
67.575 0.00876926
67.615 0.0268209
67.655 0.0262832
67.695 0.0678334
67.735 0.042821
67.775 0.0553624
67.815 0.0813562
67.855 0.103987
67.895 0.0798745
67.935 0.103657
67.975 0.12454
68.015 0.146863
68.055 0.157832
68.095 0.189653
68.135 0.167125
68.175 0.205661
68.215 0.18475
68.255 0.20988
68.295 0.213865
68.335 0.20517
68.375 0.203917
68.415 0.197308
68.455 0.176522
68.495 0.197789
68.535 0.198652
68.575 0.17219
68.615 0.129806
68.655 0.123032
68.695 0.0868457
68.735 0.0735729
68.775 0.0453303
68.815 0.0235072
68.855 0.00908337
68.895 0.0240576
68.935 0.00704246
68.975 -0.00157666
69.015 0.00751132
69.055 -0.0110443
69.095 -0.00643223
69.135 -0.00540323
69.175 0.00463676
69.215 0.0213042
69.255 0.0198149
69.295 0.0384167
69.335 0.0419893
69.375 0.0433229
69.415 0.0305873
69.455 0.0270394
69.495 0.0429073
69.535 0.029418
69.575 0.0245644
69.615 0.0139736
69.655 0.0115792
69.695 0.0116439
69.735 0.0291831
69.775 0.0139508
69.815 0.0065455
69.855 0.0206286
69.895 0.0309459
69.935 0.0314189
69.975 0.0513346
70.015 0.0396137
70.055 0.045596
70.095 0.054195
70.135 0.0758892
70.175 0.0944087
70.215 0.0882482
70.255 0.11967
70.295 0.115097
70.335 0.135853
70.375 0.119379
70.415 0.127124
70.455 0.105914
70.495 0.0993894
70.535 0.0862314
70.575 0.0866929
70.615 0.0641527
70.655 0.0652637
70.695 0.0688035
70.735 0.06975
70.775 0.0742565
70.815 0.0967543
70.855 0.10918
70.895 0.125452
70.935 0.145113
70.975 0.187688
71.015 0.228499
71.055 0.276572
71.095 0.283126
71.135 0.25654
71.175 0.210353
71.215 0.202935
71.255 0.176689
71.295 0.12694
71.335 0.0887708
71.375 0.0399454
71.415 0.0311964
71.455 0.00834501
71.495 0.0048208
71.535 -0.0136433
71.575 -0.00514108
71.615 -0.00494101
71.655 -0.0125599
71.695 0.000628969
71.735 -0.000979378
71.775 -0.00426264
71.815 -0.0101628
71.855 -0.00729067
71.895 -0.00507636
71.935 0.00951698
71.975 -0.00104512
72.015 -0.015571
72.04 -0.0160724