File: data/xrd/xy/2019-06-21T14_37_13.758897+00_00_LBL_F3.xy
'Id: "" Comment: "Integrate frame perovskite_05_001.gfrmwith cursor Wedge Cursor #5" Operator: "UC Berkeley" Anode: "Co" Scantype: "TwoTheta" TimePerStep: "400"
13.77 -0.0316857
13.81 0.00334437
13.85 0.0574112
13.89 0.00274649
13.93 -0.0301495
13.97 0.0898141
14.01 0.0492894
14.05 0.0834536
14.09 0.00272053
14.13 0.0234035
14.17 0.0242377
14.21 0.0460096
14.25 0.0222261
14.29 0.0494665
14.33 -0.000988729
14.37 0.106307
14.41 0.0363218
14.45 0.0791825
14.49 0.0852144
14.53 0.0311314
14.57 0.105445
14.61 0.0523107
14.65 0.0352925
14.69 0.0223664
14.73 0.0396623
14.77 0.0196945
14.81 0.11795
14.85 0.0451158
14.89 0.0769399
14.93 0.0525982
14.97 0.0403003
15.01 0.0510224
15.05 0.0994032
15.09 0.107916
15.13 0.10951
15.17 0.0259121
15.21 0.0669043
15.25 0.0304104
15.29 -0.0176437
15.33 0.0356902
15.37 0.0380856
15.41 0.0472886
15.45 0.0550572
15.49 0.0999692
15.53 0.0509828
15.57 0.0477418
15.61 0.0438588
15.65 -0.00588968
15.69 -0.0222005
15.73 0.0484668
15.77 0.00364616
15.81 0.0860718
15.85 0.0485888
15.89 0.0303664
15.93 0.0420841
15.97 0.0980224
16.01 0.0619794
16.05 0.0391975
16.09 0.0182246
16.13 0.0386442
16.17 0.00598522
16.21 -0.0260275
16.25 0.0551749
16.29 0.0434536
16.33 0.0689606
16.37 0.0239259
16.41 0.0574546
16.45 0.00704158
16.49 0.0488881
16.53 0.0286028
16.57 0.0138434
16.61 0.0273622
16.65 0.0623583
16.69 0.0294653
16.73 0.00890251
16.77 0.0200294
16.81 0.0792503
16.85 0.0383016
16.89 0.031679
16.93 0.0600498
16.97 0.00135092
17.01 0.0655452
17.05 0.0547836
17.09 0.0489029
17.13 0.0424972
17.17 -0.0112644
17.21 -0.0184095
17.25 0.00324438
17.29 -0.00281572
17.33 0.0466284
17.37 0.0444556
17.41 0.0370268
17.45 0.0202007
17.49 0.00822762
17.53 0.0328262
17.57 0.0811023
17.61 0.0323352
17.65 0.0333134
17.69 0.0430742
17.73 0.0179318
17.77 0.0587779
17.81 -0.0084477
17.85 0.0574563
17.89 0.014874
17.93 0.0761308
17.97 0.0470569
18.01 0.0453117
18.05 0.046649
18.09 0.0290768
18.13 0.0632315
18.17 0.0676943
18.21 0.0434527
18.25 0.0301152
18.29 0.074357
18.33 0.0246243
18.37 0.049433
18.41 0.00926262
18.45 0.0689797
18.49 0.0857128
18.53 0.0174997
18.57 0.0226988
18.61 0.073643
18.65 0.0194
18.69 0.0540208
18.73 -0.00698943
18.77 0.0575483
18.81 0.000318162
18.85 -0.0237817
18.89 -0.0212707
18.93 0.0204189
18.97 0.00366357
19.01 0.058463
19.05 0.0318008
19.09 0.0667471
19.13 0.0492193
19.17 0.0397071
19.21 0.080293
19.25 0.00963389
19.29 0.0457833
19.33 0.0544765
19.37 -0.0258691
19.41 0.01002
19.45 0.0474266
19.49 0.0314025
19.53 0.0198957
19.57 0.025394
19.61 0.00676225
19.65 0.0453934
19.69 0.000844023
19.73 0.0269622
19.77 0.00743105
19.81 0.0202585
19.85 0.0206354
19.89 0.0586927
19.93 0.0216836
19.97 0.0445542
20.01 0.0749633
20.05 -0.00445565
20.09 -0.0117383
20.13 -0.0185358
20.17 0.0944395
20.21 0.0193585
20.25 0.00455158
20.29 0.013911
20.33 0.0641157
20.37 0.036019
20.41 0.0431493
20.45 0.0549496
20.49 0.0574789
20.53 0.0749176
20.57 0.000981458
20.61 0.0209271
20.65 0.0243179
20.69 0.00881961
20.73 0.0965477
20.77 0.0106616
20.81 0.0186662
20.85 0.0182996
20.89 0.0828972
20.93 0.0223282
20.97 0.0408922
21.01 0.0389059
21.05 0.0770964
21.09 0.047404
21.13 0.031914
21.17 0.0492642
21.21 0.0439655
21.25 0.024208
21.29 0.0873021
21.33 0.0112935
21.37 0.0299278
21.41 0.0439018
21.45 -0.0232153
21.49 -0.0208744
21.53 0.0356276
21.57 -0.013287
21.61 -0.00411932
21.65 0.0185913
21.69 0.0159152
21.73 0.0539969
21.77 0.0436489
21.81 0.00812086
21.85 0.017889
21.89 0.0133358
21.93 0.0104625
21.97 0.0857376
22.01 0.0480342
22.05 0.0766401
22.09 0.0518833
22.13 0.0503134
22.17 0.0141947
22.21 0.0809925
22.25 0.0279005
22.29 0.0132817
22.33 0.0699655
22.37 0.0435032
22.41 0.0765213
22.45 0.021406
22.49 0.0623655
22.53 0.0532644
22.57 0.0253485
22.61 0.0695603
22.65 0.026491
22.69 0.0728356
22.73 0.0306602
22.77 0.0161113
22.81 0.0609348
22.85 0.0435439
22.89 0.0386294
22.93 0.0264262
22.97 0.0113304
23.01 0.0222111
23.05 0.0458819
23.09 0.0319728
23.13 0.0637961
23.17 0.032264
23.21 0.0246797
23.25 0.0510446
23.29 0.047306
23.33 0.0473358
23.37 0.0390694
23.41 0.0223809
23.45 0.00935398
23.49 0.0147332
23.53 0.0114503
23.57 0.044099
23.61 0.0161587
23.65 0.0702741
23.69 0.0179121
23.73 0.0359334
23.77 0.0328464
23.81 0.0255358
23.85 0.0500342
23.89 0.00624444
23.93 0.0266416
23.97 0.0635593
24.01 0.0313404
24.05 0.0414969
24.09 0.0479457
24.13 0.0148602
24.17 -0.00705004
24.21 0.0543844
24.25 0.0321737
24.29 0.00155439
24.33 0.0433535
24.37 0.0288845
24.41 0.0284954
24.45 0.0355873
24.49 -0.00845872
24.53 0.0275353
24.57 0.0127507
24.61 0.0255896
24.65 0.0277843
24.69 0.00565087
24.73 0.0553609
24.77 0.0211186
24.81 0.0275993
24.85 0.0233147
24.89 0.0131464
24.93 0.0367983
24.97 0.0396987
25.01 0.0654108
25.05 0.051405
25.09 0.0816974
25.13 0.0677264
25.17 0.0342793
25.21 0.00563841
25.25 0.0332594
25.29 0.044116
25.33 0.021552
25.37 0.042124
25.41 0.0576531
25.45 0.0208248
25.49 0.0289191
25.53 -0.00655192
25.57 0.0478464
25.61 -0.0161798
25.65 0.057056
25.69 0.0462246
25.73 -0.0153078
25.77 0.00010609
25.81 0.0126793
25.85 0.0423716
25.89 -0.0125753
25.93 0.0483833
25.97 0.0216973
26.01 0.0471006
26.05 0.0790517
26.09 0.0529532
26.13 0.0155421
26.17 -0.0103367
26.21 0.0519304
26.25 0.0154604
26.29 0.0516791
26.33 0.0649348
26.37 0.0551788
26.41 0.0664345
26.45 0.0433281
26.49 0.037399
26.53 0.012526
26.57 0.0379591
26.61 0.0372549
26.65 -0.00306327
26.69 0.0353353
26.73 0.0814738
26.77 0.00961211
26.81 0.0466317
26.85 0.0261253
26.89 0.0582664
26.93 0.0305606
26.97 0.0205409
27.01 -0.000818531
27.05 0.0357293
27.09 0.0467248
27.13 0.000616767
27.17 0.0194882
27.21 0.00946912
27.25 0.0245019
27.29 0.0265534
27.33 0.0254108
27.37 0.0354732
27.41 0.0505998
27.45 0.0561639
27.49 0.0498466
27.53 0.0300681
27.57 0.0290256
27.61 0.045772
27.65 0.0448306
27.69 0.0320901
27.73 0.070842
27.77 0.0471231
27.81 0.0592613
27.85 0.0241186
27.89 -0.00909365
27.93 0.111589
27.97 0.0619963
28.01 0.0127647
28.05 0.0459303
28.09 -0.00210567
28.13 0.0848103
28.17 0.0611467
28.21 0.0472174
28.25 0.0673972
28.29 0.0954825
28.33 0.0331303
28.37 0.0209147
28.41 0.0668193
28.45 0.0528838
28.49 0.0547457
28.53 0.0336088
28.57 0.056745
28.61 0.1187
28.65 0.158604
28.69 0.163033
28.73 0.0841229
28.77 0.125911
28.81 0.0437413
28.85 0.0688142
28.89 0.0422193
28.93 -0.00270712
28.97 -0.00231622
29.01 0.00345454
29.05 0.0193125
29.09 0.0159445
29.13 -0.00346589
29.17 0.0309327
29.21 -0.00247829
29.25 -0.00251156
29.29 0.00953564
29.33 0.0145851
29.37 0.0325635
29.41 0.0406743
29.45 0.0235889
29.49 0.00175305
29.53 0.0484492
29.57 0.00836875
29.61 -0.0265503
29.65 0.0448773
29.69 0.0304321
29.73 0.0279378
29.77 0.0111861
29.81 0.0379369
29.85 0.120156
29.89 0.162301
29.93 0.3403
29.97 0.465965
30.01 0.744082
30.05 1.03653
30.09 1.18845
30.13 1.14927
30.17 0.904516
30.21 0.721273
30.25 0.462777
30.29 0.227705
30.33 0.0963352
30.37 0.065179
30.41 0.0543648
30.45 -0.000627785
30.49 0.00494767
30.53 0.00465966
30.57 -0.00895134
30.61 0.0147869
30.65 -0.00260545
30.69 -0.00136505
30.73 0.0148538
30.77 0.00826761
30.81 0.00494861
30.85 0.015746
30.89 0.00486477
30.93 0.0109365
30.97 0.000557613
31.01 -0.0144884
31.05 0.0330836
31.09 0.00547185
31.13 0.0346709
31.17 -0.0136912
31.21 0.0109867
31.25 -0.00617477
31.29 -0.00343564
31.33 0.0371908
31.37 0.00623311
31.41 -0.0185621
31.45 -0.0138858
31.49 -0.00205598
31.53 -0.0246869
31.57 -2.1828e-05
31.61 0.0372296
31.65 0.0194214
31.69 0.0235739
31.73 0.00559567
31.77 0.039548
31.81 0.0148011
31.85 -0.00447679
31.89 0.0208021
31.93 0.032142
31.97 0.0231453
32.01 -0.00403035
32.05 -0.00651652
32.09 0.0416579
32.13 -0.00909282
32.17 -0.00348289
32.21 0.0101762
32.25 -0.006221
32.29 0.0309842
32.33 0.00181396
32.37 0.0207939
32.41 0.0087372
32.45 0.0189693
32.49 0.0414998
32.53 0.018472
32.57 0.0110757
32.61 0.00248063
32.65 0.0236132
32.69 0.036903
32.73 0.0325707
32.77 0.0148596
32.81 0.0265393
32.85 0.0129448
32.89 -0.019944
32.93 0.0170614
32.97 0.0385502
33.01 0.00276032
33.05 0.0150571
33.09 0.0178662
33.13 0.0260318
33.17 0.00190805
33.21 0.0181665
33.25 0.0353502
33.29 0.0343877
33.33 0.0311842
33.37 0.0238874
33.41 0.0148763
33.45 0.0118519
33.49 0.0451401
33.53 0.0162951
33.57 0.0258114
33.61 0.00900165
33.65 0.0169947
33.69 -0.00411308
33.73 0.0227608
33.77 6.48539e-05
33.81 0.00736678
33.85 0.0175924
33.89 0.010709
33.93 0.009103
33.97 0.00281967
34.01 -0.0111941
34.05 0.0225147
34.09 -0.010375
34.13 -0.0238664
34.17 0.00518427
34.21 0.00045603
34.25 -0.000660887
34.29 0.000484985
34.33 0.00525542
34.37 0.00893197
34.41 0.0288501
34.45 0.0179886
34.49 0.00772524
34.53 0.0281759
34.57 0.0743604
34.61 0.141145
34.65 0.391644
34.69 0.685614
34.73 0.975425
34.77 1.19133
34.81 1.15879
34.85 0.883762
34.89 0.59653
34.93 0.327785
34.97 0.14
35.01 0.0463424
35.05 0.00639674
35.09 0.0197683
35.13 0.00836107
35.17 -0.00121265
35.21 0.00819165
35.25 -0.00768014
35.29 0.00322149
35.33 0.0276184
35.37 -0.0217887
35.41 -0.00694543
35.45 0.0205073
35.49 -0.0110023
35.53 -0.0138184
35.57 -0.00159277
35.61 -0.00572534
35.65 -0.000667327
35.69 -0.0181971
35.73 0.00587899
35.77 -0.011487
35.81 0.012231
35.85 0.0214033
35.89 0.0085798
35.93 -0.00626681
35.97 0.0443786
36.01 0.0702071
36.05 0.0810827
36.09 0.0970365
36.13 0.178309
36.17 0.349173
36.21 0.638537
36.25 1.05355
36.29 1.44328
36.33 1.65071
36.37 1.6208
36.41 1.33657
36.45 0.924169
36.49 0.554718
36.53 0.281793
36.57 0.128738
36.61 0.0510277
36.65 0.0119854
36.69 0.0164255
36.73 0.0177971
36.77 0.00832429
36.81 0.00546491
36.85 0.0109147
36.89 -0.0148202
36.93 -0.0109416
36.97 0.00518161
37.01 0.0291037
37.05 0.0120011
37.09 -0.0126261
37.13 -0.00715745
37.17 0.0136208
37.21 0.016835
37.25 0.0528125
37.29 0.051794
37.33 0.17486
37.37 0.272477
37.41 0.432062
37.45 0.53168
37.49 0.567319
37.53 0.472263
37.57 0.369806
37.61 0.229749
37.65 0.138935
37.69 0.0959471
37.73 0.0567767
37.77 0.0133026
37.81 0.0133868
37.85 0.00377955
37.89 -0.0143268
37.93 -0.00492858
37.97 0.00366255
38.01 -0.0144695
38.05 -0.021979
38.09 -0.00290316
38.13 -0.00469592
38.17 0.0235483
38.21 -0.0053523
38.25 -0.0170975
38.29 0.00519513
38.33 0.0239039
38.37 0.0384337
38.41 0.0511138
38.45 0.0822707
38.49 0.122578
38.53 0.198958
38.57 0.290033
38.61 0.256117
38.65 0.225984
38.69 0.157669
38.73 0.0935841
38.77 0.0390957
38.81 0.0341591
38.85 0.00633677
38.89 0.0200026
38.93 0.0141411
38.97 0.0127789
39.01 0.0251562
39.05 0.0226486
39.09 -0.00118176
39.13 0.025096
39.17 -0.00739072
39.21 -0.00495737
39.25 0.000232435
39.29 0.0150039
39.33 0.00626651
39.37 0.00122524
39.41 0.0135453
39.45 -0.0116228
39.49 0.00969341
39.53 -0.0113496
39.57 0.0214341
39.61 -0.000570933
39.65 0.0171081
39.69 0.00790555
39.73 0.00716255
39.77 -0.00360613
39.81 -0.0174854
39.85 0.00392487
39.89 0.0183657
39.93 0.0183274
39.97 0.0108268
40.01 0.00668604
40.05 0.0198738
40.09 0.0130874
40.13 0.00630758
40.17 0.0272238
40.21 0.00667335
40.25 -0.001724
40.29 0.00578521
40.33 -0.00803244
40.37 0.00618016
40.41 0.0113166
40.45 0.0223218
40.49 0.0194391
40.53 0.0307531
40.57 0.00268767
40.61 0.0197679
40.65 0.0101392
40.69 0.0405756
40.73 0.0486418
40.77 0.0191177
40.81 0.0432607
40.85 0.0350266
40.89 0.0148402
40.93 0.0165889
40.97 0.0176144
41.01 0.0114935
41.05 -0.0025305
41.09 -0.00881841
41.13 0.0216824
41.17 0.032663
41.21 0.00676759
41.25 0.0412533
41.29 0.13429
41.33 0.324513
41.37 0.564117
41.41 0.753278
41.45 0.79821
41.49 0.614998
41.53 0.33723
41.57 0.164477
41.61 0.0960464
41.65 0.0346985
41.69 0.00438283
41.73 0.0317475
41.77 0.0466697
41.81 0.0273187
41.85 0.041206
41.89 0.0397418
41.93 0.00479923
41.97 -0.0141582
42.01 0.0151885
42.05 0.0196152
42.09 0.0164389
42.13 0.0183455
42.17 0.0123827
42.21 0.00243538
42.25 0.0227512
42.29 0.0156899
42.33 0.0095687
42.37 0.00769415
42.41 0.0158279
42.45 0.0207989
42.49 0.00702939
42.53 0.0188417
42.57 0.0222555
42.61 0.0136491
42.65 0.00682554
42.69 0.019959
42.73 0.0250746
42.77 0.0117215
42.81 0.0273836
42.85 0.0301679
42.89 0.0389546
42.93 0.0217184
42.97 0.0335037
43.01 0.0119268
43.05 0.0492746
43.09 0.0275107
43.13 0.0294035
43.17 -0.00508576
43.21 0.0446472
43.25 0.0297466
43.29 0.0217769
43.33 0.0403055
43.37 0.0190665
43.41 0.0474696
43.45 0.0192654
43.49 0.0260007
43.53 0.035971
43.57 0.0151574
43.61 0.0602525
43.65 0.0232869
43.69 0.0191232
43.73 0.00955189
43.77 -0.0123557
43.81 0.0189783
43.85 -0.0215552
43.89 0.0162513
43.93 0.00615851
43.97 0.0220155
44.01 0.0186968
44.05 0.00475461
44.09 0.0266514
44.13 0.00110898
44.17 0.0343831
44.21 0.0274636
44.25 -0.0177959
44.29 0.0171072
44.33 0.030507
44.37 0.00548188
44.41 0.0400494
44.45 0.0199457
44.49 0.0187786
44.53 0.0363452
44.57 0.00191241
44.61 0.0718314
44.65 0.119566
44.69 0.181407
44.73 0.300249
44.77 0.299212
44.81 0.313242
44.85 0.219726
44.89 0.146677
44.93 0.0690327
44.97 0.0554724
45.01 0.0104126
45.05 0.0324888
45.09 0.0134636
45.13 0.0121957
45.17 -0.0146808
45.21 0.0177753
45.25 0.0198691
45.29 -0.0200948
45.33 0.00506818
45.37 -0.00025068
45.41 0.0263508
45.45 0.0105816
45.49 -0.00622452
45.53 -0.00203349
45.57 0.0225256
45.61 0.0192554
45.65 -0.0143622
45.69 0.0263743
45.73 0.00726482
45.77 -0.0142896
45.81 0.0112113
45.85 0.0071198
45.89 0.00432803
45.93 -0.0110015
45.97 -0.018589
46.01 -0.00333496
46.05 0.034601
46.09 0.0182402
46.13 0.0184369
46.17 -0.0100001
46.21 -0.0164709
46.25 0.0312175
46.29 -0.00963499
46.33 0.0161159
46.37 0.00143996
46.41 0.000856414
46.45 0.00279817
46.49 -0.0124415
46.53 0.0205492
46.57 0.0360105
46.61 0.0147096
46.65 0.00990093
46.69 0.0215734
46.73 0.00677252
46.77 0.0317785
46.81 -0.0069126
46.85 0.0147744
46.89 -0.00968692
46.93 0.0164542
46.97 0.00272118
47.01 0.00234655
47.05 -0.00131481
47.09 0.024386
47.13 0.0223043
47.17 0.00216562
47.21 0.0353732
47.25 -0.00674914
47.29 0.012138
47.33 0.0203205
47.37 0.034595
47.41 0.0322932
47.45 0.0515418
47.49 0.0871928
47.53 0.0941184
47.57 0.1518
47.61 0.149174
47.65 0.184423
47.69 0.141756
47.73 0.133475
47.77 0.131113
47.81 0.120544
47.85 0.141036
47.89 0.147023
47.93 0.195709
47.97 0.252825
48.01 0.435351
48.05 0.868212
48.09 1.63172
48.13 2.69147
48.17 3.54354
48.21 3.8273
48.25 3.501
48.29 2.7217
48.33 1.90306
48.37 1.10477
48.41 0.525665
48.45 0.282551
48.49 0.132348
48.53 0.10279
48.57 0.0681527
48.61 0.048696
48.65 0.0807444
48.69 0.0394909
48.73 0.0295235
48.77 0.0266704
48.81 0.0222749
48.85 0.0197408
48.89 0.0191847
48.93 0.0531207
48.97 0.0962227
49.01 0.137972
49.05 0.260844
49.09 0.346157
49.13 0.4207
49.17 0.380966
49.21 0.333329
49.25 0.227698
49.29 0.137558
49.33 0.094731
49.37 0.0209665
49.41 0.0115889
49.45 0.0428545
49.49 0.00742116
49.53 -0.00270101
49.57 0.00366648
49.61 0.00372933
49.65 0.0111466
49.69 0.00118209
49.73 0.0197775
49.77 0.0207778
49.81 0.0343403
49.85 0.0228495
49.89 0.0328291
49.93 0.0364319
49.97 0.0481499
50.01 0.0788898
50.05 0.129222
50.09 0.205493
50.13 0.404454
50.17 0.764305
50.21 1.2618
50.25 1.64583
50.29 1.77896
50.33 1.53328
50.37 1.1799
50.41 0.81414
50.45 0.538801
50.49 0.316924
50.53 0.166619
50.57 0.0926949
50.61 0.0397136
50.65 0.0238251
50.69 0.0147013
50.73 0.00660462
50.77 0.00609685
50.81 0.0164596
50.85 0.0150063
50.89 0.00933671
50.93 0.0180516
50.97 0.0120495
51.01 0.00601204
51.05 -0.00788129
51.09 -0.00839226
51.13 -0.0217098
51.17 0.00922573
51.21 -0.00309633
51.25 0.00840339
51.29 0.00112017
51.33 -0.00688119
51.37 -0.000174147
51.41 -0.00808644
51.45 -0.00819726
51.49 -0.0133814
51.53 -0.0132377
51.57 -0.00687232
51.61 0.0293019
51.65 0.0433874
51.69 0.0852668
51.73 0.138528
51.77 0.180858
51.81 0.161969
51.85 0.156534
51.89 0.10654
51.93 0.163103
51.97 0.182817
52.01 0.226631
52.05 0.210808
52.09 0.219405
52.13 0.165368
52.17 0.106179
52.21 0.084939
52.25 0.0517169
52.29 0.0367331
52.33 -0.00493904
52.37 0.015605
52.41 0.00513331
52.45 0.0066729
52.49 0.000744048
52.53 -0.0128241
52.57 -0.00683125
52.61 -0.00333824
52.65 0.00601122
52.69 0.00717505
52.73 -0.00784769
52.77 0.00638418
52.81 0.00823765
52.85 0.000664124
52.89 0.00608179
52.93 -0.00717773
52.97 0.00125384
53.01 0.00286059
53.05 0.0170302
53.09 -0.00499512
53.13 -0.00125291
53.17 -0.017647
53.21 0.00964419
53.25 0.0184271
53.29 0.00576689
53.33 0.0125135
53.37 0.0054753
53.41 0.00255767
53.45 -0.00578834
53.49 0.0134366
53.53 -0.00427154
53.57 0.0127454
53.61 0.0110096
53.65 0.0258585
53.69 0.0585316
53.73 0.0757943
53.77 0.0719516
53.81 0.0807077
53.85 0.0796402
53.89 0.0561798
53.93 0.0840248
53.97 0.0587132
54.01 0.0442382
54.05 0.029186
54.09 0.022836
54.13 0.00138089
54.17 -0.00836044
54.21 0.00581068
54.25 -0.00488259
54.29 0.00281591
54.33 0.00149814
54.37 0.0132291
54.41 -0.00612239
54.45 0.0106276
54.49 -0.0200194
54.53 -0.00301681
54.57 0.00483262
54.61 -0.00351178
54.65 -0.00113299
54.69 -0.00329166
54.73 -0.00319302
54.77 -0.00466817
54.81 -0.00666465
54.85 -0.00761417
54.89 -0.0108611
54.93 -0.00556365
54.97 -0.0102251
55.01 0.0274046
55.05 0.0219228
55.09 0.0628981
55.13 0.0383395
55.17 0.0553061
55.21 0.0622986
55.25 0.0444192
55.29 0.0447942
55.33 0.0302521
55.37 0.0270188
55.41 0.0119371
55.45 0.017952
55.49 -0.00527241
55.53 0.00998468
55.57 0.0143869
55.61 0.00588139
55.65 0.0062692
55.69 -0.00501649
55.73 0.0122473
55.77 0.00615545
55.81 0.0118267
55.85 0.0259829
55.89 -0.00693848
55.93 -0.00628785
55.97 0.0120736
56.01 0.000264614
56.05 0.0154857
56.09 -0.0193473
56.13 0.0180125
56.17 -0.00780614
56.21 0.00477382
56.25 0.033204
56.29 0.0101244
56.33 0.0152389
56.37 -0.000550069
56.41 0.00658974
56.45 -0.0134982
56.49 -0.00734925
56.53 -0.00277452
56.57 -0.00499909
56.61 -0.00265354
56.65 -0.0180295
56.69 -0.0198414
56.73 -0.0172118
56.77 0.00605419
56.81 0.00907939
56.85 0.00837618
56.89 0.0186349
56.93 0.042541
56.97 0.0746011
57.01 0.0859996
57.05 0.107836
57.09 0.160964
57.13 0.110734
57.17 0.0869452
57.21 0.045487
57.25 0.0732695
57.29 0.0290217
57.33 0.0247593
57.37 0.0180885
57.41 0.0109619
57.45 0.0137501
57.49 0.0406412
57.53 0.0316126
57.57 0.0098755
57.61 0.0325422
57.65 0.0528465
57.69 0.127686
57.73 0.261926
57.77 0.506296
57.81 0.761062
57.85 0.994796
57.89 1.07089
57.93 0.964579
57.97 0.778253
58.01 0.571567
58.05 0.368867
58.09 0.220691
58.13 0.141756
58.17 0.0247032
58.21 0.0385712
58.25 0.0133268
58.29 0.0196981
58.33 0.0124025
58.37 0.0143484
58.41 0.0236576
58.45 0.00787907
58.49 -0.00306547
58.53 0.018422
58.57 0.0251846
58.61 0.00689805
58.65 0.0151421
58.69 0.016395
58.73 0.008337
58.77 0.0224596
58.81 0.005325
58.85 0.0258908
58.89 0.00893696
58.93 -0.00627023
58.97 0.0214496
59.01 -0.0108367
59.05 0.0164349
59.09 -0.0129336
59.13 0.0121014
59.17 -0.00463735
59.21 -0.0139156
59.25 0.0107034
59.29 0.012724
59.33 0.00345027
59.37 -0.00284455
59.41 0.00887339
59.45 0.0255543
59.49 0.00494894
59.53 -0.0034365
59.57 -0.0104852
59.61 0.0277776
59.65 0.0030222
59.69 0.0178607
59.73 0.0366455
59.77 -4.4779e-05
59.81 0.0186336
59.85 0.0079818
59.89 0.0156988
59.93 -0.0151979
59.97 0.0114983
60.01 -0.0061646
60.05 0.0321406
60.09 0.0128554
60.13 0.00928559
60.17 0.022337
60.21 0.0250734
60.25 0.00363079
60.29 0.00459475
60.33 -0.000776707
60.37 -0.0145391
60.41 0.0130221
60.45 -0.0159207
60.49 0.0177288
60.53 0.0223816
60.57 0.0103908
60.61 0.0047852
60.65 0.00549908
60.69 0.0144818
60.73 0.0136805
60.77 -0.00329431
60.81 0.0111384
60.85 -0.0153037
60.89 -0.0114269
60.93 -0.019036
60.97 0.011125
61.01 0.0107069
61.05 0.0154829
61.09 -0.00940964
61.13 -0.0124196
61.17 0.0108754
61.21 0.0130608
61.25 -0.0163832
61.29 -0.0168585
61.33 0.00252568
61.37 -0.00319562
61.41 0.0129586
61.45 0.0411945
61.49 0.0167142
61.53 0.0357625
61.57 0.0349917
61.61 0.0720925
61.65 0.147719
61.69 0.281254
61.73 0.386373
61.77 0.475908
61.81 0.59518
61.85 0.520422
61.89 0.39179
61.93 0.33563
61.97 0.288158
62.01 0.195084
62.05 0.123817
62.09 0.0783385
62.13 0.0314566
62.17 -0.00224757
62.21 0.0193123
62.25 0.0283637
62.29 0.0256125
62.33 0.0386482
62.37 0.035812
62.41 0.056256
62.45 0.112101
62.49 0.176217
62.53 0.242936
62.57 0.330394
62.61 0.341335
62.65 0.377292
62.69 0.337766
62.73 0.280307
62.77 0.21802
62.81 0.141813
62.85 0.103196
62.89 0.0477166
62.93 0.0263221
62.97 0.00570997
63.01 0.016477
63.05 -0.00977581
63.09 -0.0139145
63.13 -0.00671517
63.17 0.00573726
63.21 0.0177755
63.25 0.0201196
63.29 0.015568
63.33 0.0159818
63.37 0.044831
63.41 0.0118497
63.45 0.0194371
63.49 0.000985539
63.53 0.0271506
63.57 -0.0182896
63.61 -0.0067902
63.65 0.00838613
63.69 0.00192243
63.73 -0.00710492
63.77 -0.0143814
63.81 0.000999938
63.85 0.0126149
63.89 -0.00349885
63.93 -0.00323982
63.97 0.0104604
64.01 0.00473614
64.05 0.00478993
64.09 -0.00813262
64.13 -0.0112075
64.17 -0.00295313
64.21 -0.00377076
64.25 0.00822578
64.29 0.00648301
64.33 0.00814599
64.37 0.00485925
64.41 -0.00412078
64.45 0.00568013
64.49 0.0161565
64.53 0.00199056
64.57 0.00561278
64.61 0.00503645
64.65 0.00405419
64.69 0.00472471
64.73 0.0332321
64.77 0.0379792
64.81 0.0471156
64.85 0.0986605
64.89 0.0843966
64.93 0.105393
64.97 0.0880693
65.01 0.0687514
65.05 0.0623816
65.09 0.0327582
65.13 0.0429225
65.17 0.0333097
65.21 0.0316021
65.25 0.0418894
65.29 0.0655213
65.33 0.033016
65.37 0.0581077
65.41 0.0536792
65.45 0.042086
65.49 0.0377523
65.53 0.0298035
65.57 0.0242355
65.61 0.0179281
65.65 0.0063818
65.69 0.00279022
65.73 0.00536158
65.77 -0.00577431
65.81 -0.00806009
65.85 -0.000887741
65.89 0.0203013
65.93 0.0137259
65.97 0.00414442
66.01 0.00619235
66.05 0.00609161
66.09 0.0166985
66.13 0.0164141
66.17 -0.00948367
66.21 0.037451
66.25 0.0168023
66.29 0.0150469
66.33 -0.00974093
66.37 0.0224568
66.41 0.00365039
66.45 0.00492194
66.49 0.016732
66.53 0.0141538
66.57 0.0104007
66.61 0.0107848
66.65 0.00233227
66.69 0.00417834
66.73 -0.0057359
66.77 0.0103467
66.81 0.00049047
66.85 0.0207859
66.89 0.0225049
66.93 -0.000102763
66.97 0.014277
67.01 0.0284803
67.05 0.00145944
67.09 0.0247844
67.13 0.000538271
67.17 -0.0097341
67.21 0.0103906
67.25 -0.00129213
67.29 0.00972112
67.33 0.0161508
67.37 -0.00765793
67.41 0.0100223
67.45 0.00855746
67.49 -0.00077006
67.53 -0.00193893
67.57 0.0167405
67.61 0.0114683
67.65 0.0126478
67.69 0.0175063
67.73 0.0569138
67.77 0.0691636
67.81 0.10352
67.85 0.0915476
67.89 0.123044
67.93 0.107402
67.97 0.10483
68.01 0.124901
68.05 0.0477595
68.09 0.0568815
68.13 0.0318113
68.17 0.0216617
68.21 0.00658939
68.25 0.00733227
68.29 0.019306
68.33 0.0141646
68.37 0.00678092
68.41 0.0173376
68.45 0.0296853
68.49 0.0234932
68.53 0.00412211
68.57 0.00943886
68.61 0.00368895
68.65 -0.00909839
68.69 0.00826337
68.73 0.00480211
68.77 0.00119512
68.81 -0.00133483
68.85 0.00778019
68.89 -0.00379651
68.93 0.012501
68.97 -0.00065966
69.01 0.0159472
69.05 0.0186259
69.09 0.011757
69.13 -0.00162725
69.17 0.0137778
69.21 0.0286233
69.25 0.00668857
69.29 0.0113963
69.33 0.00354346
69.37 0.0142002
69.41 0.0350412
69.45 0.0108491
69.49 0.0112624
69.53 0.00937596
69.57 0.00351314
69.61 0.00275561
69.65 -0.00158153
69.69 0.00175923
69.73 -0.00202437
69.77 0.0168826
69.81 -0.00287369
69.85 -0.00976602
69.89 -0.000280397
69.93 0.0326285
69.97 0.0322459
70.01 0.0359489
70.05 0.0417212
70.09 0.0686131
70.13 0.046147
70.17 0.0311551
70.21 0.0473162
70.25 0.0460696
70.29 0.0286375
70.33 0.0258904
70.37 0.0243447
70.41 -0.00487577
70.45 0.00463811
70.49 0.0126967
70.53 -0.00191611
70.57 0.0157119
70.61 0.00914676
70.65 0.00159382
70.69 -0.00783717
70.73 -0.0149824
70.77 0.0104029
70.81 0.0166687
70.85 0.00291346
70.89 -0.000738761
70.93 0.0265491
70.97 0.0199607
71.01 0.0678608
71.05 0.0945036
71.09 0.167881
71.13 0.211766
71.17 0.327869
71.21 0.394449
71.25 0.425751
71.29 0.44447
71.33 0.438929
71.37 0.413972
71.41 0.368231
71.45 0.312085
71.49 0.252718
71.53 0.205742
71.57 0.135526
71.61 0.0868343
71.65 0.0415127
71.69 0.0253725
71.73 0.00541747
71.77 0.0137596
71.81 0.00370996
71.85 0.0181249
71.89 -0.00976203
71.93 0.0166939
71.97 0.0152027
72.01 -0.0081382
72.05 0.0174599
72.09 0.0210427
72.13 0.0181336
72.17 0.0369923
72.21 0.0446352
72.25 0.0484247
72.29 0.0520537
72.33 0.035268
72.37 0.047306
72.41 0.0330342
72.45 0.0205433
72.49 -0.00407892
72.53 0.0219861
72.57 0.00181428
72.61 0.00733864
72.65 0.00281965
72.69 -0.00727168
72.73 0.00781377
72.77 -0.0142686
72.81 0.00901052
72.85 -0.00184293
72.89 0.0154454
72.93 0.00277623
72.97 0.00237973
73.01 0.00532363
73.05 0.00832472
73.09 -0.00380684
73.13 -0.00321574
73.17 -0.00219505
73.21 -0.0179528
73.25 0.0130089
73.29 -0.0140043
73.3 -0.0189622