File: data/xrd/xy/2019-06-19T14_53_56.517003+00_00_LBL_D1.xy
'Id: "" Comment: "Integrate frame perovskite_01_001.gfrmwith cursor Wedge Cursor #1" Operator: "UC Berkeley" Anode: "Co" Scantype: "TwoTheta" TimePerStep: "400"
13.87 -0.0306558
13.91 0.0549691
13.95 0.0349511
13.99 0.0519151
14.03 0.0629168
14.07 0.0507979
14.11 0.0606171
14.15 0.010106
14.19 0.102516
14.23 0.000159628
14.27 0.0498052
14.31 0.00490846
14.35 0.0159429
14.39 0.00242956
14.43 0.126303
14.47 0.0503293
14.51 0.0121543
14.55 0.0541931
14.59 0.0601481
14.63 0.108505
14.67 0.069472
14.71 0.0832245
14.75 0.0546687
14.79 0.00922876
14.83 0.0646352
14.87 0.0342355
14.91 0.0217607
14.95 0.0632404
14.99 0.0656564
15.03 0.0282599
15.07 0.032492
15.11 0.0305353
15.15 0.0837412
15.19 -0.0158276
15.23 0.0483581
15.27 -0.0126946
15.31 0.112615
15.35 0.046601
15.39 0.0556439
15.43 0.0837951
15.47 0.0656734
15.51 0.0273621
15.55 0.0566361
15.59 0.0447514
15.63 0.030476
15.67 0.0693142
15.71 0.022061
15.75 0.0394382
15.79 0.022059
15.83 0.060354
15.87 0.0300501
15.91 0.0624085
15.95 0.0982414
15.99 0.0158011
16.03 0.0394406
16.07 0.0542422
16.11 0.0127106
16.15 0.0256675
16.19 0.0587725
16.23 0.0220533
16.27 0.0547485
16.31 0.0518906
16.35 0.0351436
16.39 0.00253002
16.43 0.0182566
16.47 0.0272591
16.51 0.0677968
16.55 0.0339337
16.59 0.00349949
16.63 0.0172581
16.67 0.0216305
16.71 0.0484099
16.75 0.00968944
16.79 0.0430122
16.83 -0.0156759
16.87 -0.00408534
16.91 0.0271926
16.95 0.0612108
16.99 0.0547337
17.03 0.0953957
17.07 -0.0054636
17.11 -0.0196984
17.15 0.0288168
17.19 0.059991
17.23 0.0361969
17.27 0.0494258
17.31 0.0243426
17.35 0.00371635
17.39 0.00304705
17.43 0.0547845
17.47 0.0172611
17.51 0.0509601
17.55 0.0233034
17.59 0.036533
17.63 0.0560482
17.67 0.0181491
17.71 0.00665421
17.75 0.0432664
17.79 0.0224755
17.83 0.0194879
17.87 0.0444303
17.91 0.0113818
17.95 0.0532866
17.99 0.00921093
18.03 -0.0127254
18.07 0.0232346
18.11 0.0481995
18.15 0.0722728
18.19 0.0616204
18.23 0.0739357
18.27 0.0575636
18.31 0.035719
18.35 0.101698
18.39 0.0648793
18.43 0.0173927
18.47 0.0488407
18.51 -0.0147714
18.55 -0.00140447
18.59 0.0442084
18.63 0.0680145
18.67 0.0557562
18.71 0.0345108
18.75 0.047734
18.79 0.0174333
18.83 0.0473618
18.87 0.0177079
18.91 0.0546775
18.95 0.0671061
18.99 0.0160223
19.03 0.0184564
19.07 0.0443208
19.11 0.0486389
19.15 0.0345142
19.19 0.0628267
19.23 0.106186
19.27 0.00378025
19.31 0.0283238
19.35 0.0654451
19.39 -0.0211535
19.43 0.0629527
19.47 0.0746744
19.51 0.0869646
19.55 0.0679075
19.59 0.0845839
19.63 -0.0172675
19.67 0.103113
19.71 0.0638241
19.75 0.0844361
19.79 0.048664
19.83 0.0492163
19.87 0.0508496
19.91 0.0600478
19.95 0.0598013
19.99 0.0382004
20.03 0.0144258
20.07 0.0470758
20.11 0.0563174
20.15 0.04934
20.19 0.0763795
20.23 0.0578359
20.27 0.0769549
20.31 0.023357
20.35 0.0509127
20.39 0.0621069
20.43 0.00371321
20.47 0.0783526
20.51 0.0685644
20.55 0.0381345
20.59 0.0456
20.63 0.0118012
20.67 0.0991181
20.71 0.0176152
20.75 0.0699066
20.79 0.037307
20.83 0.126077
20.87 0.0272998
20.91 0.00896896
20.95 0.0382975
20.99 0.0742722
21.03 0.0927303
21.07 0.050661
21.11 0.0446368
21.15 0.104101
21.19 0.0460055
21.23 0.0165187
21.27 0.0415047
21.31 0.108487
21.35 0.0779873
21.39 0.0519157
21.43 0.0787456
21.47 0.0431688
21.51 0.035029
21.55 0.0575188
21.59 0.0604192
21.63 0.0490179
21.67 0.0767615
21.71 0.0877467
21.75 0.0635317
21.79 0.0343018
21.83 0.0753814
21.87 0.0567909
21.91 0.0404029
21.95 0.059289
21.99 0.0113357
22.03 0.060514
22.07 0.00461722
22.11 0.0612799
22.15 0.062499
22.19 0.0775387
22.23 0.0825728
22.27 0.0549167
22.31 0.0189326
22.35 0.0808285
22.39 0.0638386
22.43 0.0847604
22.47 -0.00484664
22.51 0.06719
22.55 0.0863182
22.59 0.0645402
22.63 0.0803542
22.67 0.123159
22.71 0.0850239
22.75 0.09388
22.79 0.132695
22.83 0.166105
22.87 0.102541
22.91 0.0800536
22.95 0.0878677
22.99 0.0888328
23.03 0.0657196
23.07 0.0738316
23.11 0.05058
23.15 0.0372422
23.19 0.0385076
23.23 0.063424
23.27 0.059552
23.31 0.0780902
23.35 0.0775914
23.39 0.0547396
23.43 0.0745501
23.47 0.0623464
23.51 0.0841632
23.55 0.0685288
23.59 0.0381265
23.63 0.0572335
23.67 0.00892566
23.71 0.0588013
23.75 0.067581
23.79 0.060787
23.83 0.0724752
23.87 0.0783319
23.91 0.0882522
23.95 0.152934
23.99 0.125968
24.03 0.055886
24.07 0.0580133
24.11 0.0415716
24.15 0.0570707
24.19 0.0907032
24.23 0.0960785
24.27 0.0890018
24.31 0.0768331
24.35 0.112015
24.39 0.028866
24.43 0.0441313
24.47 0.0757875
24.51 0.0759828
24.55 0.0811265
24.59 0.0499953
24.63 0.0378247
24.67 0.0813682
24.71 0.025478
24.75 0.0317588
24.79 0.0747818
24.83 0.070061
24.87 0.0599158
24.91 0.107073
24.95 0.06106
24.99 0.0836773
25.03 0.11363
25.07 0.0570644
25.11 0.0748442
25.15 0.049007
25.19 0.0646317
25.23 0.074722
25.27 0.0734294
25.31 0.0427171
25.35 0.0534465
25.39 0.0555226
25.43 0.110817
25.47 0.0889665
25.51 0.0569574
25.55 0.103367
25.59 0.0397681
25.63 0.0794907
25.67 0.0792793
25.71 0.055607
25.75 0.0409803
25.79 0.015426
25.83 0.0390053
25.87 0.0721284
25.91 0.0936835
25.95 0.0789126
25.99 0.0695972
26.03 0.0464666
26.07 0.0422991
26.11 0.0710684
26.15 0.0621087
26.19 0.0165495
26.23 0.0314024
26.27 0.061998
26.31 -0.00648937
26.35 0.0662564
26.39 0.11318
26.43 0.0248873
26.47 0.0562917
26.51 0.0199909
26.55 0.0429487
26.59 0.0554173
26.63 0.0674073
26.67 0.0447594
26.71 0.0772099
26.75 -0.00742515
26.79 0.0589094
26.83 0.0597221
26.87 0.0138637
26.91 0.0394942
26.95 0.0593753
26.99 0.0791376
27.03 0.0845907
27.07 0.0807838
27.11 0.106538
27.15 0.0590348
27.19 0.0360696
27.23 0.0594918
27.27 0.0594465
27.31 0.0457494
27.35 0.0298646
27.39 0.00893847
27.43 0.00544215
27.47 0.002684
27.51 0.0634303
27.55 -0.0126596
27.59 0.0254693
27.63 0.0401007
27.67 0.0304318
27.71 0.0697556
27.75 0.048773
27.79 -0.0167096
27.83 0.041627
27.87 0.0198158
27.91 0.0386935
27.95 0.00905219
27.99 0.00379909
28.03 0.0395945
28.07 0.038641
28.11 0.00951802
28.15 0.0267567
28.19 0.00283345
28.23 0.00950177
28.27 0.0557383
28.31 -0.000454703
28.35 0.0585455
28.39 0.0273275
28.43 0.0366397
28.47 0.0671232
28.51 -0.00493959
28.55 -0.0269857
28.59 0.0160991
28.63 0.0243623
28.67 0.0292904
28.71 -0.00297428
28.75 0.058261
28.79 0.0631914
28.83 0.0436301
28.87 0.0737939
28.91 0.056833
28.95 0.0606267
28.99 0.0761868
29.03 0.0311059
29.07 0.0643028
29.11 0.0722213
29.15 0.101193
29.19 0.0812251
29.23 0.103235
29.27 0.170535
29.31 0.239253
29.35 0.282245
29.39 0.358952
29.43 0.456532
29.47 0.500684
29.51 0.445375
29.55 0.344267
29.59 0.174062
29.63 0.0819888
29.67 0.080002
29.71 0.0359387
29.75 0.066983
29.79 0.0439867
29.83 0.0331892
29.87 0.0214808
29.91 0.00101981
29.95 0.0305711
29.99 0.0208423
30.03 0.0277803
30.07 0.0197193
30.11 0.0384996
30.15 0.000334218
30.19 0.0242799
30.23 -0.00783202
30.27 0.0183149
30.31 0.016521
30.35 0.0139086
30.39 -0.0255796
30.43 0.0132994
30.47 0.00188527
30.51 0.0314984
30.55 0.0460991
30.59 0.00958612
30.63 0.0193319
30.67 0.0388366
30.71 0.0262033
30.75 0.027449
30.79 0.0302432
30.83 0.0420151
30.87 0.072675
30.91 0.0512223
30.95 0.0462359
30.99 -0.00223554
31.03 -0.006608
31.07 0.0202871
31.11 -0.0123581
31.15 0.00563443
31.19 0.022863
31.23 0.0142856
31.27 0.0566974
31.31 0.0355505
31.35 -0.0133085
31.39 0.0241269
31.43 0.0207452
31.47 -0.0133161
31.51 0.0465889
31.55 0.0271789
31.59 -0.0277157
31.63 0.0135476
31.67 0.00754319
31.71 0.0153533
31.75 0.0305607
31.79 0.0292943
31.83 0.0128057
31.87 0.0143843
31.91 0.0314818
31.95 0.0396939
31.99 0.0214833
32.03 -0.00896565
32.07 -0.00895775
32.11 0.003649
32.15 0.0477569
32.19 -0.00340067
32.23 0.0286789
32.27 -0.00148547
32.31 0.015139
32.35 0.0225501
32.39 -0.00545361
32.43 0.0233883
32.47 -0.00833369
32.51 0.011704
32.55 0.0229052
32.59 -0.000510811
32.63 -0.0180012
32.67 0.000477831
32.71 -0.00480878
32.75 -0.00262639
32.79 -0.0201099
32.83 -0.00210971
32.87 0.0235361
32.91 -0.00783477
32.95 -0.000807667
32.99 0.015776
33.03 0.0214637
33.07 0.0159393
33.11 0.0161216
33.15 0.00932874
33.19 0.0242519
33.23 0.0410868
33.27 -0.0235768
33.31 0.00347325
33.35 0.0193835
33.39 0.01331
33.43 -0.0268456
33.47 -0.00459139
33.51 0.0197931
33.55 0.0166669
33.59 0.00789222
33.63 0.00736894
33.67 -0.00229743
33.71 0.00753793
33.75 0.00376606
33.79 0.0192743
33.83 -0.00244502
33.87 -0.0123323
33.91 0.0126022
33.95 -0.0294856
33.99 0.0128176
34.03 0.0300108
34.07 0.0192636
34.11 -0.0261423
34.15 0.0320185
34.19 0.0175873
34.23 0.027397
34.27 0.0412524
34.31 0.0349892
34.35 0.053706
34.39 0.0649453
34.43 0.11328
34.47 0.144367
34.51 0.203981
34.55 0.230175
34.59 0.278453
34.63 0.356498
34.67 0.359987
34.71 0.342869
34.75 0.245453
34.79 0.21285
34.83 0.126585
34.87 0.0832344
34.91 0.083099
34.95 0.0905561
34.99 0.132626
35.03 0.145673
35.07 0.161747
35.11 0.179676
35.15 0.259062
35.19 0.283321
35.23 0.293829
35.27 0.254159
35.31 0.211405
35.35 0.142149
35.39 0.0884614
35.43 0.0738098
35.47 0.0349072
35.51 0.0227489
35.55 0.017972
35.59 0.0461746
35.63 0.0192396
35.67 0.0233838
35.71 -0.0021391
35.75 -0.0148142
35.79 -0.0295482
35.83 0.00753026
35.87 -0.00905876
35.91 -0.012974
35.95 0.00333578
35.99 -0.00665489
36.03 0.0189568
36.07 0.00740515
36.11 0.0154082
36.15 -0.00185227
36.19 0.00274573
36.23 -0.0285498
36.27 -0.00458022
36.31 -0.0186703
36.35 -0.014704
36.39 0.00310888
36.43 -0.0301029
36.47 -0.0114159
36.51 -0.00784586
36.55 -0.0142822
36.59 0.00406286
36.63 -0.00157979
36.67 0.00733716
36.71 0.017572
36.75 0.0260497
36.79 -0.00573547
36.83 0.0169177
36.87 0.0412574
36.91 0.0412207
36.95 0.0973281
36.99 0.101537
37.03 0.134007
37.07 0.154128
37.11 0.222462
37.15 0.244504
37.19 0.274475
37.23 0.235299
37.27 0.228191
37.31 0.153201
37.35 0.104295
37.39 0.0708356
37.43 0.0664688
37.47 0.043686
37.51 0.0704817
37.55 0.050064
37.59 0.069623
37.63 0.0802261
37.67 0.0468671
37.71 0.0457476
37.75 0.0483778
37.79 0.0538745
37.83 0.00703765
37.87 0.0280613
37.91 0.0010294
37.95 0.00620269
37.99 0.032465
38.03 -0.0162606
38.07 -0.0278476
38.11 0.0299226
38.15 0.0230465
38.19 -0.0050688
38.23 -0.00227898
38.27 0.00388542
38.31 0.0168474
38.35 0.00402713
38.39 -0.00503869
38.43 0.0177598
38.47 -0.0161897
38.51 0.00449188
38.55 -0.0120356
38.59 -0.00156421
38.63 0.0103411
38.67 0.000842761
38.71 -0.0196558
38.75 -0.00716497
38.79 0.0131946
38.83 0.00318855
38.87 -0.0101231
38.91 0.00865726
38.95 -0.00988533
38.99 0.0177698
39.03 0.00557196
39.07 0.0112165
39.11 -0.00593672
39.15 -0.00726241
39.19 0.0054494
39.23 0.0126195
39.27 0.0230277
39.31 0.00380498
39.35 0.00186791
39.39 0.00103393
39.43 -0.00699365
39.47 0.0059625
39.51 -0.00175495
39.55 -0.0208176
39.59 0.0117539
39.63 0.00648623
39.67 -0.0037365
39.71 0.00733777
39.75 0.00352086
39.79 0.00108934
39.83 0.0135515
39.87 0.0188927
39.91 0.0140519
39.95 0.0367747
39.99 0.0245449
40.03 0.0653739
40.07 0.110652
40.11 0.0962163
40.15 0.139108
40.19 0.105011
40.23 0.0684313
40.27 0.0772648
40.31 0.0398311
40.35 0.0163664
40.39 0.0273991
40.43 0.0103337
40.47 0.016333
40.51 -0.00185189
40.55 0.00323598
40.59 0.014373
40.63 -0.00345983
40.67 0.012814
40.71 0.00548507
40.75 0.0151874
40.79 -0.0161166
40.83 0.0152359
40.87 0.0142305
40.91 0.0138315
40.95 0.0186614
40.99 -0.0233832
41.03 0.0088431
41.07 0.0173927
41.11 0.00380551
41.15 0.0182733
41.19 0.00673782
41.23 0.00797927
41.27 0.025747
41.31 0.0216179
41.35 0.00379374
41.39 0.002932
41.43 0.0115882
41.47 0.00479107
41.51 0.0143168
41.55 -0.00234925
41.59 0.00209701
41.63 0.0206046
41.67 0.0221007
41.71 -0.0276868
41.75 -0.0109477
41.79 0.014587
41.83 -0.0117546
41.87 0.0015945
41.91 -0.00437997
41.95 0.00858233
41.99 0.00907544
42.03 -0.000720047
42.07 0.0188289
42.11 -0.000200037
42.15 0.0140192
42.19 0.00691097
42.23 0.00619794
42.27 0.025181
42.31 -0.027459
42.35 -0.0175246
42.39 0.0258827
42.43 0.00263973
42.47 0.0102557
42.51 0.00973939
42.55 -0.00784918
42.59 0.0130382
42.63 0.0133387
42.67 0.0178409
42.71 0.00910709
42.75 0.0135999
42.79 0.00645978
42.83 0.0248261
42.87 0.0296725
42.91 0.0500964
42.95 0.00737416
42.99 0.02128
43.03 0.0191446
43.07 0.0168748
43.11 -0.013234
43.15 0.0119174
43.19 -0.00490636
43.23 0.00436412
43.27 0.0226006
43.31 0.0286552
43.35 -0.00665742
43.39 0.0121973
43.43 -0.0132806
43.47 0.0119623
43.51 0.0275314
43.55 0.0311796
43.59 0.0230019
43.63 0.0286977
43.67 -0.00461433
43.71 0.0351971
43.75 0.0294326
43.79 0.0550705
43.83 0.0411942
43.87 0.0654645
43.91 0.0899721
43.95 0.109292
43.99 0.093758
44.03 0.0923213
44.07 0.127524
44.11 0.140035
44.15 0.141016
44.19 0.130157
44.23 0.127499
44.27 0.0684365
44.31 0.0574553
44.35 0.0277596
44.39 0.0124764
44.43 0.0361094
44.47 0.0140099
44.51 0.0103519
44.55 0.00104339
44.59 0.0375279
44.63 0.0256234
44.67 0.00250216
44.71 0.024529
44.75 0.0238211
44.79 0.0399117
44.83 0.0111807
44.87 0.000678409
44.91 0.0253599
44.95 0.0453256
44.99 0.0374861
45.03 0.00872115
45.07 0.00813788
45.11 0.0228731
45.15 0.0167953
45.19 0.0485907
45.23 0.0444371
45.27 0.0390205
45.31 0.00532701
45.35 0.00599403
45.39 -0.00144972
45.43 -0.0143147
45.47 0.0332758
45.51 0.0100444
45.55 0.00789346
45.59 0.0187673
45.63 0.0113598
45.67 0.0111379
45.71 0.00708751
45.75 -0.00143612
45.79 0.0140881
45.83 0.0209387
45.87 0.00800791
45.91 0.00221735
45.95 0.0172955
45.99 0.00190079
46.03 0.0292305
46.07 0.0189213
46.11 0.0498242
46.15 0.0328466
46.19 0.0623878
46.23 0.0277845
46.27 0.0693696
46.31 0.0920281
46.35 0.117355
46.39 0.148372
46.43 0.194186
46.47 0.225329
46.51 0.223659
46.55 0.267876
46.59 0.256072
46.63 0.28091
46.67 0.32947
46.71 0.274011
46.75 0.229962
46.79 0.233322
46.83 0.173815
46.87 0.125168
46.91 0.0963195
46.95 0.0695225
46.99 0.0592781
47.03 0.0546685
47.07 0.02915
47.11 0.0255066
47.15 0.0293018
47.19 0.0318625
47.23 0.0143495
47.27 0.0131769
47.31 0.014718
47.35 0.0286713
47.39 0.0259259
47.43 0.0505393
47.47 0.0488073
47.51 0.0659955
47.55 0.0577908
47.59 0.074844
47.63 0.0745714
47.67 0.102523
47.71 0.107723
47.75 0.11364
47.79 0.0910817
47.83 0.0855545
47.87 0.0750887
47.91 0.0718765
47.95 0.0476994
47.99 0.0248477
48.03 0.0536501
48.07 0.0445137
48.11 0.0491498
48.15 0.0831008
48.19 0.0734796
48.23 0.116047
48.27 0.113547
48.31 0.149231
48.35 0.130795
48.39 0.115943
48.43 0.127977
48.47 0.123163
48.51 0.134173
48.55 0.196818
48.59 0.241118
48.63 0.290167
48.67 0.314177
48.71 0.330789
48.75 0.302611
48.79 0.27835
48.83 0.238307
48.87 0.181684
48.91 0.167448
48.95 0.122114
48.99 0.0617482
49.03 0.0519597
49.07 0.0277335
49.11 -0.0119017
49.15 -0.00975428
49.19 0.00496622
49.23 -0.0103185
49.27 0.0020741
49.31 -0.012012
49.35 0.00103044
49.39 -0.00566291
49.43 0.012641
49.47 -0.000577097
49.51 0.0101107
49.55 -0.00815302
49.59 -0.00365047
49.63 0.00132149
49.67 -0.00306281
49.71 0.0105157
49.75 0.00903826
49.79 0.015508
49.83 0.0148959
49.87 -0.011106
49.91 -0.0133759
49.95 -0.0166819
49.99 0.00875686
50.03 -0.00736084
50.07 0.0132957
50.11 0.0111056
50.15 -0.0194146
50.19 0.00333711
50.23 0.0388516
50.27 0.0312784
50.31 0.00392745
50.35 0.0120694
50.39 0.0208369
50.43 0.00707677
50.47 0.00346307
50.51 0.0449786
50.55 0.0425719
50.59 0.0492992
50.63 0.0211362
50.67 0.0366646
50.71 0.024648
50.75 0.013561
50.79 0.00105896
50.83 0.0207109
50.87 0.00726457
50.91 -0.000340466
50.95 -0.00735907
50.99 0.0179302
51.03 0.00408449
51.07 -0.0155934
51.11 0.0183006
51.15 -0.0100211
51.19 -0.000152589
51.23 0.00766368
51.27 -0.0140191
51.31 0.00126981
51.35 0.00236796
51.39 0.00423344
51.43 -0.0129586
51.47 0.00190793
51.51 -0.0108315
51.55 2.90539e-05
51.59 0.00344104
51.63 -0.00145694
51.67 -0.00431851
51.71 0.00422633
51.75 0.0012696
51.79 -0.0113032
51.83 -0.0132818
51.87 -0.00125634
51.91 0.00325549
51.95 -0.00529272
51.99 -0.00478488
52.03 0.00471291
52.07 -0.00658983
52.11 0.0126124
52.15 -0.0045336
52.19 -0.00942987
52.23 -0.015786
52.27 -0.0107281
52.31 0.00234951
52.35 0.0151645
52.39 -0.0115503
52.43 -0.00540538
52.47 -0.00476472
52.51 -0.0111655
52.55 0.0151876
52.59 0.0179327
52.63 0.00633939
52.67 0.010806
52.71 0.0329554
52.75 0.0226415
52.79 0.015025
52.83 -0.00424534
52.87 0.00196393
52.91 -0.00751785
52.95 0.00096951
52.99 -0.0125803
53.03 0.0128156
53.07 0.00718277
53.11 -0.00427513
53.15 -0.0106065
53.19 -0.00134254
53.23 -0.00377147
53.27 -0.0043435
53.31 -0.00549125
53.35 -0.00671766
53.39 0.000237429
53.43 0.000155852
53.47 -0.00225119
53.51 0.00654095
53.55 0.00370951
53.59 0.0152955
53.63 0.00434548
53.67 0.0105825
53.71 0.00382293
53.75 -0.0015621
53.79 0.00398374
53.83 -0.00138472
53.87 -0.00745279
53.91 -0.00744307
53.95 0.000827838
53.99 -0.00558915
54.03 -0.00879011
54.07 0.00328949
54.11 -0.017391
54.15 -0.00408712
54.19 0.00956132
54.23 -0.00644095
54.27 0.0130096
54.31 0.0137306
54.35 0.0137042
54.39 0.00239857
54.43 0.0350455
54.47 0.0279396
54.51 0.0333321
54.55 0.020327
54.59 0.0318068
54.63 0.0155392
54.67 0.0304875
54.71 0.0170733
54.75 0.0180414
54.79 -0.0028864
54.83 0.00970585
54.87 -0.0136566
54.91 0.0174125
54.95 -0.0127945
54.99 0.00162843
55.03 0.00310562
55.07 -0.0108026
55.11 -0.0193917
55.15 -0.00287127
55.19 -0.0105697
55.23 0.00796965
55.27 -0.00724986
55.31 0.00261234
55.35 0.0200239
55.39 0.00993677
55.43 0.0272119
55.47 0.0176918
55.51 0.0163754
55.55 0.00610129
55.59 0.00679077
55.63 0.00862655
55.67 0.029496
55.71 0.0432754
55.75 0.0435363
55.79 0.0544092
55.83 0.0740256
55.87 0.075005
55.91 0.092998
55.95 0.086733
55.99 0.0694687
56.03 0.0782036
56.07 0.0658028
56.11 0.0349159
56.15 0.0489671
56.19 0.0349603
56.23 0.0336115
56.27 0.050741
56.31 0.0514487
56.35 0.0293336
56.39 0.0319355
56.43 0.0096096
56.47 0.0143636
56.51 0.0134858
56.55 0.0206678
56.59 0.0108073
56.63 -0.0013154
56.67 0.02768
56.71 0.0256256
56.75 0.00589585
56.79 0.000449081
56.83 0.0279209
56.87 0.00670039
56.91 0.0173134
56.95 0.0122071
56.99 -0.0064999
57.03 0.0229204
57.07 0.0100865
57.11 0.0053411
57.15 -0.000405361
57.19 0.0153337
57.23 0.0129835
57.27 0.0409185
57.31 0.0195519
57.35 0.0289299
57.39 0.0156524
57.43 0.0273667
57.47 0.00567055
57.51 -0.00460626
57.55 0.0113493
57.59 0.00113145
57.63 0.0161887
57.67 0.0240158
57.71 0.013085
57.75 0.0128958
57.79 0.0174091
57.83 0.0180937
57.87 -0.00322122
57.91 -0.0117675
57.95 0.00563502
57.99 0.0125584
58.03 0.0252104
58.07 -0.00489868
58.11 0.00714747
58.15 0.00776488
58.19 0.00956083
58.23 0.0126155
58.27 0.0167867
58.31 0.0169487
58.35 0.0188278
58.39 0.0280109
58.43 0.0127499
58.47 0.0168394
58.51 0.00701434
58.55 0.0121978
58.59 0.0178069
58.63 0.0106732
58.67 0.00644263
58.71 0.00407391
58.75 0.00232538
58.79 0.0182696
58.83 -0.0171818
58.87 0.0274129
58.91 -0.0108925
58.95 -0.00275013
58.99 0.0235507
59.03 0.011915
59.07 0.00457904
59.11 -0.00151979
59.15 0.0114003
59.19 -0.00337008
59.23 0.0131299
59.27 0.0164061
59.31 0.0130331
59.35 0.00404991
59.39 0.00436582
59.43 0.0385583
59.47 0.0259915
59.51 0.0033688
59.55 0.0259214
59.59 0.00617779
59.63 0.0325841
59.67 0.0375867
59.71 0.0487367
59.75 0.0302736
59.79 0.0323967
59.83 0.0403543
59.87 0.0495152
59.91 0.0330235
59.95 0.0354925
59.99 0.0586357
60.03 0.0208347
60.07 0.00241639
60.11 0.021197
60.15 -0.0111916
60.19 -0.00426194
60.23 0.0357354
60.27 0.0244095
60.31 0.0026658
60.35 -0.0149941
60.39 0.00430923
60.43 0.00296858
60.47 -0.0108366
60.51 0.00637051
60.55 -0.00345729
60.59 0.00183478
60.63 -0.00173439
60.67 0.0194686
60.71 0.0168142
60.75 0.021954
60.79 0.0156404
60.83 0.0464735
60.87 0.032982
60.91 0.025318
60.95 0.0107623
60.99 0.0450111
61.03 0.0211723
61.07 0.0428528
61.11 0.0401768
61.15 0.059264
61.19 0.0645614
61.23 0.044857
61.27 0.0735075
61.31 0.0312276
61.35 0.0328318
61.39 0.0271846
61.43 0.0160286
61.47 0.0089488
61.51 0.0296204
61.55 0.0201937
61.59 0.0268061
61.63 0.00593854
61.67 -0.0133456
61.71 0.0296566
61.75 0.0220562
61.79 0.00459054
61.83 0.0241237
61.87 0.00937695
61.91 0.00394927
61.95 -0.00417618
61.99 -0.00751968
62.03 0.000417117
62.07 0.00483128
62.11 0.00950513
62.15 -0.00611002
62.19 0.0253781
62.23 0.0131921
62.27 0.00347908
62.31 0.0153149
62.35 -0.0106675
62.39 0.00556718
62.43 0.00556854
62.47 0.027062
62.51 0.000905479
62.55 0.0077317
62.59 0.00308024
62.63 0.00901526
62.67 0.010588
62.71 -0.00501834
62.75 0.00597399
62.79 -0.00222809
62.83 0.0116329
62.87 0.0100638
62.91 -0.00104958
62.95 0.0281453
62.99 0.0195676
63.03 0.0437996
63.07 0.0400146
63.11 0.0858875
63.15 0.131584
63.19 0.141052
63.23 0.139394
63.27 0.118036
63.31 0.0702394
63.35 0.0574048
63.39 0.0308525
63.43 0.0176708
63.47 0.0183091
63.51 0.00544131
63.55 0.00197828
63.59 0.0106353
63.63 -0.0053902
63.67 -0.00471899
63.71 -0.00192621
63.75 -0.00985605
63.79 0.00676413
63.83 0.00146753
63.87 -0.0137563
63.91 0.0238393
63.95 0.00278122
63.99 -0.00219293
64.03 0.000383764
64.07 -0.0087372
64.11 0.0188683
64.15 0.0236265
64.19 -2.02155e-06
64.23 0.0160476
64.27 0.0275502
64.31 -0.0122604
64.35 0.000724773
64.39 -0.00802646
64.43 0.00585106
64.47 -0.0116493
64.51 -0.00489961
64.55 0.0039617
64.59 0.00422368
64.63 0.00121085
64.67 -0.00467181
64.71 0.00570835
64.75 0.00873734
64.79 0.0177366
64.83 0.0124418
64.87 0.0278758
64.91 0.0202946
64.95 0.0127741
64.99 0.016504
65.03 0.0287185
65.07 0.0320102
65.11 0.0188461
65.15 0.012313
65.19 0.0325676
65.23 0.0201227
65.27 0.0126209
65.31 0.00767058
65.35 0.0212848
65.39 0.00962132
65.43 0.00909749
65.47 0.0117742
65.51 -0.00419622
65.55 -0.00161534
65.59 -0.00404054
65.63 -0.0173508
65.67 -0.00979404
65.71 0.00015701
65.75 -0.00325277
65.79 0.00831615
65.83 -0.00585792
65.87 0.0117293
65.91 0.0155504
65.95 0.00620103
65.99 -0.0068687
66.03 0.00390941
66.07 0.0112124
66.11 0.0173973
66.15 0.0254261
66.19 0.0208123
66.23 0.0311964
66.27 0.0126794
66.31 0.0111645
66.35 0.0176643
66.39 0.0078451
66.43 0.016366
66.47 0.0263467
66.51 0.00703032
66.55 0.0179857
66.59 0.0208729
66.63 -0.0103044
66.67 -0.0144094
66.71 0.000955931
66.75 -0.00243524
66.79 0.0205545
66.83 3.52305e-05
66.87 -0.00626437
66.91 0.0189182
66.95 -0.00550704
66.99 -0.0109762
67.03 -0.0109581
67.07 -0.0105551
67.11 0.00105616
67.15 0.0115108
67.19 0.00675325
67.23 0.000495933
67.27 0.00113254
67.31 -0.00786219
67.35 0.00377579
67.39 0.00511063
67.43 -0.00405636
67.47 0.00612056
67.51 0.00200457
67.55 0.0182039
67.59 0.013611
67.63 -0.00139154
67.67 0.00716489
67.71 0.0022469
67.75 0.0103695
67.79 -0.000235681
67.83 -0.0137617
67.87 -0.00914667
67.91 0.0210828
67.95 0.0131041
67.99 0.00356794
68.03 0.0131066
68.07 0.0181928
68.11 0.00154005
68.15 0.00416219
68.19 0.0110387
68.23 -0.00854202
68.27 0.00678596
68.31 0.0251486
68.35 -0.00946101
68.39 0.0160151
68.43 0.0334391
68.47 -0.0143165
68.51 0.0146438
68.55 0.0069776
68.59 -0.00655983
68.63 0.0193054
68.67 0.00117048
68.71 0.0132082
68.75 0.0201279
68.79 0.0113062
68.83 0.0158097
68.87 0.022344
68.91 0.0491315
68.95 0.0557051
68.99 0.0257262
69.03 0.0384188
69.07 0.0517039
69.11 0.0495135
69.15 0.0441279
69.19 0.0474487
69.23 0.0485223
69.27 0.0623979
69.31 0.0475908
69.35 0.0312629
69.39 0.0603643
69.43 0.0335775
69.47 0.0433856
69.51 0.0372683
69.55 0.0328336
69.59 0.0526384
69.63 0.0367745
69.67 0.0496448
69.71 0.0370848
69.75 0.0334756
69.79 0.0357746
69.83 0.0163111
69.87 0.0105288
69.91 0.0182427
69.95 0.0102217
69.99 -0.0160988
70.03 0.00746203
70.07 -0.000273903
70.11 -0.012183
70.15 -0.00267807
70.19 0.00343892
70.23 -0.00462154
70.26 -0.0203634