File: data/xrd/xy/2019-07-01T19_39_31.550325+00_00_LBL_A1.xy
'Id: "" Comment: "Integrate frame 20190716_acnh3_nprop_4flph_01_002.gfrmwith cursor Wedge Cursor #1" Operator: "" Anode: "Co" Scantype: "TwoTheta" TimePerStep: "450"
15.555 -0.0300108
15.595 0.00362519
15.635 -0.0171617
15.675 0.0347395
15.715 0.0339919
15.755 0.0400896
15.795 0.0223604
15.835 0.090657
15.875 0.0445911
15.915 0.022852
15.955 0.0811146
15.995 0.0113114
16.035 0.0643478
16.075 0.0283185
16.115 0.00496017
16.155 0.050292
16.195 0.0637375
16.235 0.0232792
16.275 0.06718
16.315 0.0627201
16.355 0.0569794
16.395 0.0474216
16.435 0.0229137
16.475 0.0194347
16.515 0.0634774
16.555 0.00576617
16.595 -0.0228535
16.635 -0.00943744
16.675 0.07294
16.715 0.0262112
16.755 0.0302638
16.795 0.0278309
16.835 0.0268793
16.875 0.00822947
16.915 0.0569121
16.955 0.0740336
16.995 0.0841297
17.035 0.107971
17.075 0.128942
17.115 0.1184
17.155 0.0922785
17.195 0.0495754
17.235 0.0124706
17.275 -0.0112748
17.315 0.0675401
17.355 0.0177953
17.395 0.028226
17.435 0.0812625
17.475 0.0401564
17.515 0.0034596
17.555 0.00119634
17.595 0.0941834
17.635 0.117641
17.675 0.0829936
17.715 0.0514129
17.755 0.091627
17.795 -0.00856985
17.835 0.0445908
17.875 0.0663496
17.915 0.0201483
17.955 0.0361676
17.995 0.0316364
18.035 -0.020081
18.075 0.0951655
18.115 0.0562636
18.155 0.109541
18.195 0.0436941
18.235 0.0422751
18.275 0.135958
18.315 0.0651871
18.355 0.109003
18.395 0.0879116
18.435 0.0745755
18.475 0.0262056
18.515 0.00886786
18.555 -0.00593751
18.595 0.0310334
18.635 0.0409068
18.675 0.0368764
18.715 0.0620067
18.755 0.0366181
18.795 0.0453267
18.835 0.0756356
18.875 0.0362109
18.915 -0.01136
18.955 0.0687737
18.995 0.0227737
19.035 0.0285569
19.075 0.0780342
19.115 0.0716861
19.155 0.072115
19.195 -0.00340517
19.235 -0.00517974
19.275 0.00277937
19.315 0.051134
19.355 0.0393274
19.395 0.00223532
19.435 -0.0130146
19.475 0.0977296
19.515 0.0331665
19.555 0.0445344
19.595 0.0681902
19.635 0.042346
19.675 0.0467154
19.715 -0.0236765
19.755 0.0414345
19.795 0.0704368
19.835 0.0450066
19.875 -0.0159669
19.915 0.0681534
19.955 0.0739403
19.995 0.0442394
20.035 0.035863
20.075 0.0010275
20.115 0.0182967
20.155 0.0629476
20.195 0.0908522
20.235 0.0298842
20.275 0.0600437
20.315 0.0253425
20.355 0.0481135
20.395 0.0132606
20.435 0.0712317
20.475 0.077291
20.515 0.0396
20.555 0.0163179
20.595 0.0395629
20.635 0.0462818
20.675 0.0364322
20.715 0.0442185
20.755 0.0342919
20.795 0.0543902
20.835 0.0766327
20.875 -0.00189284
20.915 -0.00121255
20.955 0.0688239
20.995 -0.000163239
21.035 0.0231844
21.075 0.109464
21.115 0.0355118
21.155 0.0574335
21.195 0.0113236
21.235 0.0336077
21.275 0.0499707
21.315 0.0953873
21.355 0.104184
21.395 0.0202348
21.435 0.0593448
21.475 0.0784103
21.515 -0.0084585
21.555 0.0515666
21.595 0.0605071
21.635 0.0665217
21.675 0.0531763
21.715 0.0925667
21.755 0.0806079
21.795 0.0437235
21.835 0.0753426
21.875 0.0025722
21.915 0.0519498
21.955 0.00319789
21.995 0.0964152
22.035 0.0420607
22.075 0.0258597
22.115 0.066347
22.155 0.0200513
22.195 0.0309352
22.235 0.00963865
22.275 0.0285503
22.315 0.0752471
22.355 0.0323758
22.395 0.014212
22.435 0.0336311
22.475 -0.00289947
22.515 0.0181762
22.555 -0.0113054
22.595 0.0700078
22.635 0.0824665
22.675 0.12474
22.715 0.159518
22.755 0.356297
22.795 0.429342
22.835 0.530866
22.875 0.402595
22.915 0.26335
22.955 0.161675
22.995 0.142131
23.035 -0.0090555
23.075 0.0456189
23.115 0.0352229
23.155 0.00273559
23.195 -0.0163291
23.235 0.0302931
23.275 0.0586287
23.315 0.00757491
23.355 -0.00516855
23.395 0.0328567
23.435 0.0625545
23.475 0.00544645
23.515 0.0450306
23.555 0.0477632
23.595 0.0288658
23.635 -0.00673596
23.675 0.098459
23.715 0.0308452
23.755 0.00848497
23.795 0.0930335
23.835 -0.0102301
23.875 0.010976
23.915 0.00639636
23.955 0.018817
23.995 0.0677763
24.035 0.0262771
24.075 0.0588957
24.115 0.0313413
24.155 -0.018263
24.195 0.0458462
24.235 0.0252172
24.275 0.0279878
24.315 0.0405304
24.355 -0.00528656
24.395 -0.028763
24.435 -0.0220919
24.475 0.0487596
24.515 0.0191661
24.555 0.0119173
24.595 0.0088155
24.635 -0.0242662
24.675 0.0125824
24.715 0.0381441
24.755 -0.000945487
24.795 -0.0150684
24.835 0.0132044
24.875 0.0455456
24.915 0.0295583
24.955 0.0488519
24.995 0.0200966
25.035 -0.0143787
25.075 0.0182013
25.115 0.0983721
25.155 0.0113797
25.195 0.0373705
25.235 0.026497
25.275 0.0242374
25.315 -0.00899172
25.355 0.0530751
25.395 0.0090839
25.435 -0.00194614
25.475 0.014723
25.515 -0.00450098
25.555 0.0100402
25.595 0.0738722
25.635 0.0333951
25.675 0.0672178
25.715 0.0395099
25.755 0.025029
25.795 0.0306138
25.835 0.0548244
25.875 0.0658676
25.915 0.0479463
25.955 0.0150023
25.995 0.0692479
26.035 -0.0288386
26.075 0.0608389
26.115 0.0599952
26.155 0.0197316
26.195 0.0622276
26.235 0.0255006
26.275 0.0773065
26.315 0.0336421
26.355 -0.0101723
26.395 0.0535751
26.435 -0.0290615
26.475 0.0257908
26.515 0.0324867
26.555 0.025039
26.595 0.0400235
26.635 0.0346409
26.675 0.0551333
26.715 0.022739
26.755 0.0505421
26.795 0.0410049
26.835 0.0562377
26.875 0.0411769
26.915 0.0141419
26.955 -0.0102599
26.995 0.0341927
27.035 0.0448196
27.075 -0.00543292
27.115 0.0732141
27.155 0.054691
27.195 0.015375
27.235 0.0315935
27.275 0.0113424
27.315 -0.0154789
27.355 0.0178773
27.395 0.0271662
27.435 0.0651643
27.475 -0.0249022
27.515 0.0146808
27.555 0.028214
27.595 0.0258627
27.635 0.0734683
27.675 0.0381853
27.715 0.0380621
27.755 0.0413313
27.795 -0.025361
27.835 0.0607747
27.875 0.113286
27.915 0.0852004
27.955 0.0826096
27.995 0.0710649
28.035 0.0650088
28.075 0.0185239
28.115 0.00843632
28.155 0.0472647
28.195 0.00585374
28.235 0.0550756
28.275 0.0624887
28.315 0.0480622
28.355 0.0311443
28.395 0.0591239
28.435 0.0570029
28.475 0.097043
28.515 0.047132
28.555 0.0124806
28.595 0.0621565
28.635 0.0527597
28.675 0.060343
28.715 0.00346431
28.755 0.0216503
28.795 0.0809507
28.835 0.0837462
28.875 0.0771059
28.915 0.125996
28.955 0.145405
28.995 0.107863
29.035 0.0471014
29.075 0.0733624
29.115 0.0825523
29.155 0.0599167
29.195 0.104211
29.235 0.108302
29.275 0.299508
29.315 0.706728
29.355 1.71037
29.395 3.55112
29.435 5.6842
29.475 6.4424
29.515 5.46728
29.555 3.559
29.595 1.77428
29.635 0.685233
29.675 0.231836
29.715 0.0948063
29.755 0.110206
29.795 0.124155
29.835 0.0197074
29.875 -0.0033683
29.915 0.0163646
29.955 0.0426943
29.995 0.00695758
30.035 0.0331569
30.075 -0.0220099
30.115 0.0230573
30.155 0.0574916
30.195 0.0396484
30.235 0.0185134
30.275 0.0268963
30.315 0.0520419
30.355 -0.0139956
30.395 0.0588874
30.435 0.0545058
30.475 0.0100047
30.515 0.00728275
30.555 -0.0276755
30.595 0.0431706
30.635 -0.0257996
30.675 -0.0223559
30.715 0.0665604
30.755 0.0795823
30.795 0.033824
30.835 0.0526228
30.875 0.0105299
30.915 0.0200221
30.955 0.0111152
30.995 0.0273525
31.035 0.00793638
31.075 -0.0274549
31.115 0.0316341
31.155 0.00371326
31.195 0.00118034
31.235 -0.0113546
31.275 0.0599515
31.315 0.0233883
31.355 0.0155131
31.395 0.0327262
31.435 0.0094997
31.475 -0.0130366
31.515 0.00171449
31.555 0.0233224
31.595 0.0118755
31.635 0.0150646
31.675 -0.0257919
31.715 -0.00596639
31.755 0.0119275
31.795 0.0365917
31.835 -0.00509564
31.875 0.0287605
31.915 0.0267231
31.955 -0.00103941
31.995 -0.000581843
32.035 0.00184445
32.075 0.0220584
32.115 0.0120534
32.155 0.00641513
32.195 0.00212684
32.235 0.0209043
32.275 0.0344246
32.315 -0.0091003
32.355 0.0296342
32.395 0.00828645
32.435 0.0364911
32.475 0.05018
32.515 0.0174948
32.555 -0.010302
32.595 0.0279003
32.635 0.00859807
32.675 0.0356838
32.715 0.0174447
32.755 0.0146608
32.795 0.00720202
32.835 -0.0173199
32.875 0.00604787
32.915 0.00815246
32.955 -0.00492748
32.995 0.0212147
33.035 0.0102821
33.075 -0.0158055
33.115 0.00549145
33.155 0.032732
33.195 0.00665451
33.235 0.0156492
33.275 -0.00221325
33.315 0.000633561
33.355 0.0309434
33.395 -0.0147244
33.435 0.0182606
33.475 0.000912002
33.515 0.0384582
33.555 -0.00939721
33.595 0.0499195
33.635 0.0224508
33.675 0.0152879
33.715 0.0471089
33.755 0.00672948
33.795 0.00913653
33.835 0.00145153
33.875 0.0104428
33.915 0.00967818
33.955 -0.00178625
33.995 -0.0153613
34.035 -0.00505351
34.075 0.00616475
34.115 -0.0014767
34.155 0.00208061
34.195 0.0112418
34.235 0.00591382
34.275 -0.0269749
34.315 0.0175721
34.355 0.0269753
34.395 0.0143
34.435 0.0582368
34.475 0.105124
34.515 0.187727
34.555 0.302579
34.595 0.347192
34.635 0.341699
34.675 0.309751
34.715 0.26755
34.755 0.134144
34.795 0.0888418
34.835 0.0725489
34.875 0.0618157
34.915 0.0812692
34.955 0.0967821
34.995 0.230085
35.035 0.397385
35.075 0.545352
35.115 0.699297
35.155 0.837825
35.195 0.850636
35.235 0.729984
35.275 0.636547
35.315 0.438738
35.355 0.292693
35.395 0.127303
35.435 0.0637553
35.475 0.000492779
35.515 -0.00934713
35.555 0.0177512
35.595 -0.00924596
35.635 0.0188241
35.675 -0.00368964
35.715 -0.0264129
35.755 -0.0161289
35.795 0.0170856
35.835 0.0225566
35.875 0.0570582
35.915 -0.0221858
35.955 0.0319876
35.995 -0.000915381
36.035 0.013503
36.075 0.0293383
36.115 0.0165178
36.155 0.0168881
36.195 0.0285021
36.235 0.00162918
36.275 -0.00049578
36.315 0.0151597
36.355 0.0140554
36.395 -0.00479183
36.435 0.0206382
36.475 0.00446965
36.515 0.0197181
36.555 -0.0092206
36.595 0.0232192
36.635 0.0209455
36.675 0.0170809
36.715 -0.00247942
36.755 0.00643188
36.795 0.00470791
36.835 -0.00268485
36.875 0.0408557
36.915 0.0427423
36.955 0.117797
36.995 0.184709
37.035 0.335941
37.075 0.447798
37.115 0.563135
37.155 0.585509
37.195 0.503747
37.235 0.432971
37.275 0.355335
37.315 0.202204
37.355 0.157312
37.395 0.09642
37.435 0.134735
37.475 0.176535
37.515 0.190904
37.555 0.269936
37.595 0.296209
37.635 0.282558
37.675 0.195577
37.715 0.15492
37.755 0.0760241
37.795 0.0676059
37.835 0.0128774
37.875 -0.00332316
37.915 0.0100364
37.955 -0.00957872
37.995 -0.00617412
38.035 0.00237152
38.075 -0.00289767
38.115 0.00380218
38.155 0.0213962
38.195 0.000656597
38.235 0.0252392
38.275 -0.00548297
38.315 -0.00737156
38.355 -0.0116825
38.395 -0.00918092
38.435 0.0173842
38.475 -0.0131539
38.515 -0.0212534
38.555 0.00556289
38.595 -0.00189165
38.635 0.0097785
38.675 0.0117446
38.715 -0.00011303
38.755 -0.0113815
38.795 -0.000267861
38.835 -7.12414e-05
38.875 0.000742745
38.915 -0.0218574
38.955 -0.0164074
38.995 0.00988971
39.035 -0.0143918
39.075 0.0206308
39.115 -0.0119753
39.155 0.0303789
39.195 -0.0113305
39.235 0.012583
39.275 -0.0185713
39.315 0.0206119
39.355 -0.0161538
39.395 -0.00990462
39.435 -0.0162697
39.475 0.00561827
39.515 -0.0122602
39.555 -0.00677568
39.595 -0.00122569
39.635 0.00275252
39.675 -0.00833598
39.715 0.0100711
39.755 0.0204183
39.795 0.0203075
39.835 0.0137237
39.875 0.0392066
39.915 0.0703804
39.955 0.105382
39.995 0.152668
40.035 0.191708
40.075 0.263659
40.115 0.332742
40.155 0.326891
40.195 0.27812
40.235 0.164356
40.275 0.100707
40.315 0.0431021
40.355 0.0391687
40.395 0.00997673
40.435 0.0349542
40.475 0.0103541
40.515 0.0272148
40.555 0.0279566
40.595 0.00848178
40.635 0.0206123
40.675 0.00143302
40.715 0.00689822
40.755 0.0220153
40.795 0.0135004
40.835 0.0526321
40.875 -0.0131204
40.915 0.0399802
40.955 0.0336664
40.995 -0.00193536
41.035 0.0224186
41.075 0.00183376
41.115 0.00891325
41.155 0.0471205
41.195 0.0651262
41.235 -0.00597019
41.275 0.00626056
41.315 0.00739378
41.355 -0.0134388
41.395 0.0200414
41.435 0.0041846
41.475 0.00054044
41.515 0.00887928
41.555 0.00712494
41.595 0.0158504
41.635 0.00575128
41.675 -0.0164742
41.715 0.00584102
41.755 0.0045323
41.795 0.00555395
41.835 0.000111918
41.875 -0.0058832
41.915 0.00357201
41.955 -0.000901767
41.995 -0.0128458
42.035 0.000234587
42.075 0.0200439
42.115 0.00217168
42.155 0.000302758
42.195 0.0494183
42.235 0.0347422
42.275 0.0257799
42.315 -0.00782203
42.355 -0.00605462
42.395 -0.00860664
42.435 0.0134463
42.475 0.00115014
42.515 0.0187755
42.555 0.0159802
42.595 -0.0179235
42.635 -0.0119026
42.675 0.0632115
42.715 0.0185336
42.755 -0.001828
42.795 0.026509
42.835 0.0374798
42.875 0.0298573
42.915 0.00687282
42.955 0.0333566
42.995 -0.00289432
43.035 0.0139944
43.075 -0.0163563
43.115 0.00442396
43.155 0.0243
43.195 -0.0140711
43.235 0.0150419
43.275 -0.0146955
43.315 0.0243689
43.355 -0.00562787
43.395 0.0163884
43.435 0.0456469
43.475 0.0273974
43.515 0.0179723
43.555 -0.00673354
43.595 -0.0109827
43.635 0.0211523
43.675 0.00509263
43.715 0.0350409
43.755 0.0158629
43.795 0.0511888
43.835 0.0244751
43.875 0.0895823
43.915 0.138395
43.955 0.218294
43.995 0.268649
44.035 0.303138
44.075 0.294509
44.115 0.312949
44.155 0.221197
44.195 0.14187
44.235 0.109577
44.275 0.0520289
44.315 0.0414392
44.355 0.0338769
44.395 -0.000986754
44.435 0.0268069
44.475 -0.0031287
44.515 -0.0118181
44.555 0.0306097
44.595 0.0441893
44.635 0.0291601
44.675 0.0151392
44.715 -0.0228718
44.755 0.00377289
44.795 -0.00310473
44.835 -0.00469299
44.875 0.0051155
44.915 0.0466766
44.955 0.0251077
44.995 0.0504131
45.035 0.0187761
45.075 0.0182153
45.115 -0.00283778
45.155 0.00290698
45.195 0.0291903
45.235 0.0484523
45.275 0.0368386
45.315 -0.00106473
45.355 0.0238172
45.395 0.0520698
45.435 0.0364922
45.475 -0.0122968
45.515 0.0185683
45.555 -0.000549611
45.595 0.00130768
45.635 0.0120388
45.675 -0.00777279
45.715 0.0213482
45.755 0.0403131
45.795 0.0152663
45.835 0.0179062
45.875 0.0227441
45.915 -0.000111866
45.955 -0.0176248
45.995 0.040833
46.035 0.0184801
46.075 0.0278044
46.115 0.0512325
46.155 0.0330129
46.195 0.0294287
46.235 0.0560894
46.275 0.07412
46.315 0.0973556
46.355 0.0929077
46.395 0.13837
46.435 0.246909
46.475 0.392328
46.515 0.406374
46.555 0.626674
46.595 0.714946
46.635 0.865276
46.675 0.909724
46.715 0.899308
46.755 0.945022
46.795 0.805355
46.835 0.663112
46.875 0.469938
46.915 0.284247
46.955 0.126271
46.995 0.0824218
47.035 0.0139975
47.075 -0.00284567
47.115 0.0337687
47.155 0.0217249
47.195 0.000147094
47.235 -0.014731
47.275 -0.00654595
47.315 -0.0194167
47.355 -0.0177166
47.395 0.00589157
47.435 0.0257
47.475 0.0254249
47.515 0.0591144
47.555 0.0875424
47.595 0.0934145
47.635 0.169786
47.675 0.18484
47.715 0.165368
47.755 0.122485
47.795 0.068398
47.835 0.0183782
47.875 0.0446621
47.915 -0.0154955
47.955 0.0220403
47.995 0.0180478
48.035 0.0673171
48.075 0.0824969
48.115 0.0927996
48.155 0.122063
48.195 0.142407
48.235 0.264368
48.275 0.37077
48.315 0.422399
48.355 0.34309
48.395 0.268526
48.435 0.267971
48.475 0.269548
48.515 0.330524
48.555 0.355852
48.595 0.449909
48.635 0.508122
48.675 0.671485
48.715 0.725299
48.755 0.78547
48.795 0.683306
48.835 0.51252
48.875 0.342647
48.915 0.226455
48.955 0.106139
48.995 0.0423801
49.035 0.029187
49.075 -0.0159153
49.115 0.0239408
49.155 -0.00366631
49.195 0.00362003
49.235 -0.0195948
49.275 -0.000454881
49.315 0.00144497
49.355 0.00893505
49.395 0.0144329
49.435 0.00942613
49.475 0.00406153
49.515 0.0138863
49.555 0.0310992
49.595 0.00208606
49.635 0.00654908
49.675 -0.00205877
49.715 0.00772169
49.755 0.00181718
49.795 0.0077367
49.835 1.77784e-05
49.875 -0.00516842
49.915 0.0124394
49.955 -0.00630337
49.995 0.0261204
50.035 -0.00245622
50.075 0.00627001
50.115 0.0171723
50.155 -0.00492272
50.195 0.00621478
50.235 0.0270526
50.275 0.0273217
50.315 0.0182948
50.355 0.0509295
50.395 0.0729189
50.435 0.0720076
50.475 0.120045
50.515 0.0995029
50.555 0.141704
50.595 0.153311
50.635 0.120228
50.675 0.0869207
50.715 0.0597681
50.755 0.0265022
50.795 -0.00260548
50.835 -0.0209712
50.875 -0.00601753
50.915 -0.00275638
50.955 -0.00575488
50.995 -0.00380769
51.035 0.000586685
51.075 -0.0182412
51.115 -0.00901565
51.155 0.000562173
51.195 -0.0200066
51.235 -0.00433064
51.275 -0.00871582
51.315 -0.00586063
51.355 0.000294419
51.395 -0.0024168
51.435 -0.0163883
51.475 0.00960583
51.515 -0.00199819
51.555 -0.00892719
51.595 0.0125597
51.635 0.00928057
51.675 -0.0165252
51.715 0.000425368
51.755 -0.0144414
51.795 -0.0134928
51.835 0.00340865
51.875 0.00329192
51.915 0.00452567
51.955 0.00703465
51.995 -0.0158799
52.035 0.00540298
52.075 0.00197015
52.115 0.00544866
52.155 -0.02157
52.195 0.000338854
52.235 -0.0127901
52.275 0.00296055
52.315 -0.0104049
52.355 -0.00369981
52.395 -0.0171834
52.435 -0.000761429
52.475 -0.00188603
52.515 -0.00435341
52.555 7.78809e-05
52.595 -0.00240244
52.635 -0.0152198
52.675 -0.0169155
52.715 0.00335417
52.755 -0.00895736
52.795 -0.000868342
52.835 0.000479267
52.875 -0.00543472
52.915 -0.0171462
52.955 0.0127906
52.995 -0.0194115
53.035 0.0098304
53.075 -0.0151849
53.115 -0.0124715
53.155 -0.00640581
53.195 -0.00313663
53.235 -0.0188767
53.275 0.00181179
53.315 0.0101244
53.355 -0.00555559
53.395 0.012031
53.435 0.0124537
53.475 0.00681043
53.515 0.0169038
53.555 0.0210625
53.595 0.0298922
53.635 0.0103113
53.675 0.0085056
53.715 0.0183839
53.755 -0.00857002
53.795 0.00374156
53.835 -0.00986979
53.875 -0.00350561
53.915 0.0130084
53.955 0.0109619
53.995 0.0160198
54.035 0.00820139
54.075 0.0197271
54.115 0.0205647
54.155 0.0277662
54.195 0.0126805
54.235 -0.00424221
54.275 -0.00299211
54.315 0.00950179
54.355 0.00432174
54.395 0.0221442
54.435 0.0280675
54.475 0.0552258
54.515 0.0574518
54.555 0.0234359
54.595 0.0349891
54.635 0.0318906
54.675 0.017693
54.715 0.00207249
54.755 0.00599548
54.795 0.0021019
54.835 -0.00887202
54.875 -0.00262396
54.915 -0.00771841
54.955 -0.00667191
54.995 0.0200709
55.035 0.0190318
55.075 0.0220135
55.115 0.00569613
55.155 -0.0110337
55.195 0.0248812
55.235 0.0111005
55.275 -0.0120107
55.315 -0.00586451
55.355 -0.0142099
55.395 0.00110232
55.435 -0.00647168
55.475 -0.00310274
55.515 -0.00637823
55.555 -0.0174151
55.595 -0.00106673
55.635 0.0114567
55.675 0.0251523
55.715 0.0715833
55.755 0.0742136
55.795 0.102269
55.835 0.149337
55.875 0.156757
55.915 0.188025
55.955 0.191735
55.995 0.207532
56.035 0.244466
56.075 0.28491
56.115 0.310225
56.155 0.367618
56.195 0.378903
56.235 0.311715
56.275 0.289558
56.315 0.230781
56.355 0.159973
56.395 0.0977234
56.435 0.0672163
56.475 0.0449983
56.515 0.0165772
56.555 -0.0183934
56.595 -0.00287755
56.635 0.0102832
56.675 -0.016315
56.715 -0.0163497
56.755 0.00159168
56.795 0.0218298
56.835 0.00055407
56.875 -0.0150958
56.915 0.0327177
56.955 -0.00465463
56.995 0.00933512
57.035 0.0228118
57.075 0.00972235
57.115 -0.000139922
57.155 0.0111599
57.195 0.0178784
57.235 0.00521877
57.275 0.0171773
57.315 -0.0051197
57.355 0.00324922
57.395 0.0152204
57.435 0.0135347
57.475 0.0147761
57.515 -0.0046061
57.555 -0.00926865
57.595 -0.00349948
57.635 0.0536645
57.675 0.00803884
57.715 -0.00937561
57.755 0.00452601
57.795 0.00995674
57.835 0.00715289
57.875 0.020602
57.915 0.0251371
57.955 0.00803478
57.995 0.0331675
58.035 0.00847789
58.075 0.0320018
58.115 0.0360305
58.155 -0.00491466
58.195 0.0181957
58.235 0.0221335
58.275 0.0255719
58.315 0.0530579
58.355 0.0384738
58.395 -0.00378438
58.435 0.013107
58.475 -0.005241
58.515 0.0204467
58.555 0.00520004
58.595 0.0112538
58.635 0.0193256
58.675 0.0134687
58.715 -0.00446668
58.755 -0.00252015
58.795 -0.00608742
58.835 0.00873603
58.875 -0.00478786
58.915 0.00838752
58.955 -0.00394595
58.995 0.00847934
59.035 -0.00335643
59.075 0.0146508
59.115 -0.00216295
59.155 -0.00802061
59.195 0.0191468
59.235 -0.0104515
59.275 0.0261408
59.315 0.00948088
59.355 0.0310769
59.395 0.0480413
59.435 0.0418918
59.475 0.0425719
59.515 0.0260385
59.555 0.0825209
59.595 0.06482
59.635 0.103039
59.675 0.100139
59.715 0.1373
59.755 0.18961
59.795 0.204627
59.835 0.182457
59.875 0.163233
59.915 0.130099
59.955 0.0967511
59.995 0.0741841
60.035 0.0365827
60.075 0.0465955
60.115 0.00294317
60.155 0.00745642
60.195 -0.0133218
60.235 -0.00547321
60.275 -0.00537373
60.315 -0.0139973
60.355 0.000732539
60.395 0.00474462
60.435 0.00215384
60.475 -0.00603688
60.515 -0.00409432
60.555 0.0119274
60.595 0.00907824
60.635 0.00514165
60.675 -0.00616952
60.715 0.0121716
60.755 0.0204208
60.795 0.0244189
60.835 0.0461416
60.875 0.0787925
60.915 0.068281
60.955 0.0490783
60.995 0.0665014
61.035 0.084364
61.075 0.0885213
61.115 0.110926
61.155 0.130281
61.195 0.13487
61.235 0.153542
61.275 0.10714
61.315 0.0922979
61.355 0.0634463
61.395 0.05958
61.435 0.00729956
61.475 0.00485876
61.515 0.0204977
61.555 0.0358527
61.595 0.00871857
61.635 0.0401362
61.675 0.000571823
61.715 -0.000438541
61.755 0.013354
61.795 0.00295071
61.835 0.00492523
61.875 0.00518966
61.915 0.0198285
61.955 7.41429e-05
61.995 -0.0172958
62.035 -0.00615586
62.075 -0.00187979
62.115 0.00254182
62.155 0.00175162
62.195 0.021321
62.235 0.00262809
62.275 0.0201918
62.315 -0.00302026
62.355 0.0242356
62.395 0.0191419
62.435 0.0182166
62.475 0.00524862
62.515 -0.0092114
62.555 0.0209662
62.595 -0.0105509
62.635 0.000358145
62.675 0.00321277
62.715 0.00637631
62.755 0.0302298
62.795 0.00391517
62.835 -0.0166386
62.875 -0.0190305
62.915 0.0239588
62.955 -0.00395424
62.995 0.00259525
63.035 0.0106513
63.075 0.0251729
63.115 -0.019291
63.155 -0.0116631
63.195 0.0189672
63.235 0.0343332
63.275 0.00870127
63.315 0.00789915
63.355 -0.00647441
63.395 0.011734
63.435 0.00593519
63.475 -0.00878628
63.515 0.000886911
63.555 0.0493091
63.595 -0.0139502
63.635 -0.0108813
63.675 -0.00374303
63.715 -0.00946934
63.755 0.0127915
63.795 0.041509
63.835 0.0129475
63.875 0.0126079
63.915 -0.0128673
63.955 0.006068
63.995 -0.0113722
64.035 0.0158719
64.075 -0.00274867
64.115 0.000733641
64.155 0.00371001
64.195 -0.00216303
64.235 -0.0033332
64.275 0.016711
64.315 0.0248576
64.355 -0.00285755
64.395 -0.00726675
64.435 0.0111197
64.475 0.00397044
64.515 -0.00406497
64.555 -0.0108905
64.595 0.000190883
64.635 -0.00347783
64.675 0.00871921
64.715 0.00340038
64.755 0.00509124
64.795 0.0127442
64.835 0.0129058
64.875 0.0337565
64.915 0.0339787
64.955 0.0453277
64.995 0.0348866
65.035 0.0170612
65.075 0.0139131
65.115 0.00603364
65.155 0.00928814
65.195 0.0232706
65.235 -0.0104219
65.275 -0.0172908
65.315 -0.00768006
65.355 -0.00806807
65.395 -0.00333975
65.435 -0.00493624
65.475 -0.00170982
65.515 0.0272979
65.555 0.0167514
65.595 0.00160818
65.635 -0.004095
65.675 -0.0110505
65.715 0.00403483
65.755 0.0297406
65.795 0.0128441
65.835 -0.0151288
65.875 0.0103828
65.915 0.044668
65.955 0.0204418
65.995 0.00241102
66.035 0.0290488
66.075 0.0368541
66.115 -0.00318457
66.155 0.0299731
66.195 0.0214812
66.235 0.0292223
66.275 0.0279192
66.315 0.0283274
66.355 0.0265682
66.395 0.0164396
66.435 0.00925596
66.475 0.00382192
66.515 0.0164737
66.555 0.00668508
66.595 0.0147352
66.635 -0.00754868
66.675 -0.002053
66.715 -0.00493382
66.755 0.00468842
66.795 0.0289502
66.835 0.0055812
66.875 0.00821805
66.915 -0.0137758
66.955 0.0150136
66.995 0.0265303
67.035 -0.0132729
67.075 -0.000180138
67.115 0.00782657
67.155 0.0112159
67.195 -0.00647189
67.235 0.0110976
67.275 -0.00450304
67.315 -0.000442712
67.355 -0.00743747
67.395 0.00303385
67.435 -0.00423566
67.475 0.00892733
67.515 -0.0069402
67.555 -0.000142425
67.595 0.004448
67.635 0.00213092
67.675 -0.00159558
67.715 0.00546481
67.755 0.0156494
67.795 -0.0121771
67.835 0.0135017
67.875 -0.0141507
67.915 0.0368968
67.955 0.0355915
67.995 0.0183144
68.035 0.0181799
68.075 0.0143362
68.115 0.0117987
68.155 0.0219774
68.195 -0.00342702
68.235 0.0254082
68.275 0.00879726
68.315 -0.00613489
68.355 0.0138334
68.395 -0.0166526
68.435 0.000718971
68.475 -0.00150691
68.515 0.0132611
68.555 0.01136
68.595 -0.00969594
68.635 -0.00477312
68.675 0.00412603
68.715 0.0164868
68.755 0.000590506
68.795 -0.00782131
68.835 0.0227519
68.875 0.0255509
68.915 0.0112586
68.955 0.0530102
68.995 0.0605596
69.035 0.0892857
69.075 0.118415
69.115 0.123466
69.155 0.153847
69.195 0.120013
69.235 0.147892
69.275 0.163741
69.315 0.157325
69.355 0.156773
69.395 0.190498
69.435 0.200834
69.475 0.212427
69.515 0.165403
69.555 0.0993103
69.595 0.0973924
69.635 0.0679063
69.675 0.0552372
69.715 0.0499171
69.755 0.0455347
69.795 0.0115202
69.835 0.00148554
69.875 0.0129001
69.915 0.0132925
69.955 0.00409682
69.995 0.0121374
70.035 -0.0166477
70.075 -0.00233559
70.115 -0.00479224
70.155 0.0186354
70.195 0.0307029
70.235 -0.00429603
70.275 0.00384482
70.315 -0.00098581
70.355 0.00868703
70.395 -0.000322618
70.435 0.0167843
70.475 0.00167373
70.515 0.015241
70.555 -0.0109239
70.595 0.00352261
70.635 0.00292319
70.675 -0.00169503
70.715 0.015823
70.755 0.0200083
70.795 0.0128909
70.835 0.00208945
70.875 0.0134719
70.915 0.0444474
70.955 0.0303748
70.995 0.005079
71.035 0.00898862
71.075 -0.012679
71.115 0.00450444
71.155 0.00764152
71.195 -0.00159452
71.235 -0.011127
71.275 0.00671463
71.315 -0.00815686
71.355 0.0249013
71.395 0.0237058
71.435 -0.000615303
71.475 0.0179768
71.515 -0.00733777
71.555 0.0127749
71.595 -0.0135062
71.635 0.0177134
71.675 0.0120416
71.715 0.00222464
71.755 -0.00385692
71.795 0.0199871
71.835 0.0230947
71.875 -0.0139568
71.915 0.0186317
71.955 -0.00568014
71.995 0.0109959
72.035 0.0122786
72.075 0.0301852
72.115 0.00271535
72.155 -0.00486658
72.195 0.0351228
72.235 0.00566274
72.275 -0.0127742
72.315 0.0192789
72.355 -0.00630296
72.395 0.00070978
72.435 0.00655802
72.475 -0.0129987
72.515 0.000348323
72.555 -0.000557601
72.595 0.00769761
72.635 0.000764744
72.675 0.00806021
72.715 0.0212518
72.755 0.0092847
72.795 0.0162772
72.835 0.0280322
72.875 0.0114903
72.915 0.0290899
72.955 0.0710449
72.995 0.0546664
73.035 0.0698707
73.075 0.0854249
73.115 0.0864084
73.155 0.0872014
73.195 0.0716929
73.235 0.0711551
73.275 0.0678194
73.315 0.038292
73.355 -0.00746996
73.395 0.0138348
73.435 0.0042234
73.475 0.00152603
73.515 0.00110058
73.555 -0.00261621
73.595 0.0105421
73.635 -0.00190126
73.675 0.0105064
73.715 -0.0035797
73.755 -0.00554169
73.795 0.0245941
73.835 -0.00606007
73.875 -0.0166702
73.915 0.0160368
73.955 -0.0085219
73.995 -0.00937561
74.035 -0.0153848
74.055 -0.0180175