File: data/xrd/xy/2019-07-12T13_34_37.895617+00_00_LBL_A7.xy
'Id: "" Comment: "Integrate frame 20190719_4fluorophenethyl_01_003.gfrmwith cursor Wedge Cursor #1" Operator: "UC Berkeley" Anode: "Co" Scantype: "TwoTheta" TimePerStep: "600"
15.41 -0.0252244
15.45 0.125547
15.49 0.00827214
15.53 0.0826014
15.57 0.0881797
15.61 0.0126751
15.65 0.118897
15.69 0.0334646
15.73 0.0472854
15.77 0.0967746
15.81 0.0186748
15.85 -0.0122519
15.89 -0.0015288
15.93 0.0581169
15.97 0.0555116
16.01 0.0654659
16.05 0.0260961
16.09 0.0277199
16.13 0.0791993
16.17 0.0341139
16.21 0.137182
16.25 0.0561933
16.29 0.0660563
16.33 0.103051
16.37 0.0482852
16.41 0.0923082
16.45 0.0871225
16.49 0.0357923
16.53 0.0566073
16.57 0.114903
16.61 0.0982809
16.65 0.153828
16.69 0.224272
16.73 0.276242
16.77 0.306029
16.81 0.237151
16.85 0.237147
16.89 0.165533
16.93 0.0781436
16.97 0.0664889
17.01 0.0604375
17.05 0.133104
17.09 0.107438
17.13 0.173362
17.17 0.177083
17.21 0.194075
17.25 0.185528
17.29 0.253026
17.33 0.19904
17.37 0.155763
17.41 0.123568
17.45 0.180075
17.49 0.138276
17.53 0.117136
17.57 0.0501223
17.61 0.113151
17.65 0.0212349
17.69 0.147073
17.73 0.159501
17.77 0.0805701
17.81 0.112638
17.85 0.0563797
17.89 0.0543276
17.93 0.118975
17.97 0.0261983
18.01 -0.0247117
18.05 0.151388
18.09 0.0895858
18.13 0.10303
18.17 0.116124
18.21 0.153904
18.25 0.0587732
18.29 0.112538
18.33 0.198898
18.37 0.0821316
18.41 0.126697
18.45 0.225411
18.49 0.433035
18.53 0.580227
18.57 1.11831
18.61 1.71902
18.65 2.20599
18.69 2.41076
18.73 2.17551
18.77 1.51158
18.81 0.900617
18.85 0.436813
18.89 0.206181
18.93 0.145312
18.97 0.0860264
19.01 0.154865
19.05 0.0535662
19.09 0.123377
19.13 0.0133696
19.17 0.0873572
19.21 0.0716924
19.25 0.130127
19.29 0.100164
19.33 0.127612
19.37 0.0644578
19.41 0.0309916
19.45 0.0366597
19.49 0.0968022
19.53 0.0241202
19.57 0.0273117
19.61 0.057741
19.65 0.0571467
19.69 0.0062893
19.73 0.139907
19.77 0.0462014
19.81 0.0679065
19.85 0.0897823
19.89 0.0758509
19.93 0.105377
19.97 0.0436717
20.01 0.0865114
20.05 0.0711589
20.09 -0.00647186
20.13 0.0308722
20.17 0.0758639
20.21 0.151976
20.25 0.0708362
20.29 0.017992
20.33 0.0672837
20.37 0.103198
20.41 0.103472
20.45 0.100676
20.49 -0.000697593
20.53 0.116468
20.57 0.105633
20.61 0.0764074
20.65 0.0240669
20.69 0.0437382
20.73 0.0865765
20.77 0.0335465
20.81 0.0600696
20.85 0.0567624
20.89 0.0865623
20.93 0.0520595
20.97 0.062661
21.01 0.0563637
21.05 0.0350938
21.09 0.0251471
21.13 0.0437958
21.17 0.0904567
21.21 0.114069
21.25 0.0899026
21.29 0.115653
21.33 0.0536866
21.37 0.117396
21.41 0.0379894
21.45 0.10975
21.49 0.0322803
21.53 0.0216575
21.57 0.0419063
21.61 0.0620766
21.65 0.0634437
21.69 0.0473264
21.73 0.111915
21.77 0.0999349
21.81 0.100641
21.85 0.049433
21.89 0.0530624
21.93 0.0592805
21.97 0.050809
22.01 0.120387
22.05 0.127423
22.09 0.0564303
22.13 0.0658713
22.17 0.105179
22.21 0.0521537
22.25 0.0722073
22.29 0.0817834
22.33 0.127736
22.37 0.0775022
22.41 0.0123232
22.45 0.0549255
22.49 0.0603101
22.53 0.0803081
22.57 0.0351155
22.61 0.0653887
22.65 0.0683061
22.69 0.066586
22.73 0.0704706
22.77 0.0362183
22.81 -0.0185472
22.85 0.0741128
22.89 0.0442725
22.93 0.0412498
22.97 0.0382482
23.01 0.0194544
23.05 0.0426986
23.09 0.0328666
23.13 0.0409403
23.17 0.0603618
23.21 0.0320687
23.25 0.117367
23.29 0.0328209
23.33 0.0419002
23.37 0.100086
23.41 0.0810751
23.45 0.0458707
23.49 0.0930976
23.53 0.127661
23.57 0.146129
23.61 0.17198
23.65 0.141236
23.69 0.148856
23.73 0.100059
23.77 0.055845
23.81 0.138104
23.85 0.17799
23.89 0.220435
23.93 0.112507
23.97 0.13465
24.01 0.0892387
24.05 0.129358
24.09 0.0457683
24.13 0.0753555
24.17 0.0945531
24.21 0.105423
24.25 0.137832
24.29 0.0857254
24.33 0.0958292
24.37 0.113518
24.41 0.0746899
24.45 0.0935574
24.49 0.103528
24.53 0.0960036
24.57 0.15818
24.61 0.125378
24.65 0.276238
24.69 0.231232
24.73 0.293333
24.77 0.539172
24.81 1.00562
24.85 2.0034
24.89 4.76526
24.93 9.60509
24.97 14.0365
25.01 16.4175
25.05 14.0122
25.09 10.0641
25.13 5.89852
25.17 2.49585
25.21 0.813742
25.25 0.46127
25.29 0.21862
25.33 0.13295
25.37 0.117601
25.41 0.210207
25.45 0.124626
25.49 0.0695116
25.53 0.0968905
25.57 0.0731966
25.61 0.0690466
25.65 0.0605101
25.69 0.0368422
25.73 0.0657215
25.77 0.0779948
25.81 0.0689789
25.85 0.0670581
25.89 0.0799978
25.93 0.0228804
25.97 0.0814518
26.01 0.0173591
26.05 0.0098508
26.09 0.0139013
26.13 -0.0256038
26.17 0.0545214
26.21 0.0382684
26.25 0.0109866
26.29 0.112353
26.33 0.0386828
26.37 0.0873311
26.41 0.091664
26.45 0.162219
26.49 0.220804
26.53 0.277319
26.57 0.327535
26.61 0.255786
26.65 0.12046
26.69 0.13281
26.73 0.038706
26.77 0.160633
26.81 0.0736985
26.85 0.113229
26.89 0.0609358
26.93 0.0891048
26.97 0.0890136
27.01 0.165945
27.05 0.182363
27.09 0.138019
27.13 0.210879
27.17 0.204909
27.21 0.247477
27.25 0.129458
27.29 0.111522
27.33 0.0975845
27.37 0.0707369
27.41 0.0677425
27.45 0.0474627
27.49 0.0573144
27.53 -0.0225517
27.57 0.00457387
27.61 -0.000139296
27.65 0.0329627
27.69 0.0429623
27.73 0.015512
27.77 0.0604446
27.81 0.0488001
27.85 0.0642503
27.89 0.196152
27.93 0.203479
27.97 0.290433
28.01 0.181802
28.05 0.114383
28.09 0.0759605
28.13 0.0997551
28.17 0.118798
28.21 0.120538
28.25 0.0850004
28.29 0.098472
28.33 0.0859994
28.37 0.0749371
28.41 0.0278247
28.45 0.0305582
28.49 0.170395
28.53 0.168948
28.57 0.0794414
28.61 0.123779
28.65 0.0824182
28.69 0.0215229
28.73 0.0296607
28.77 0.0460877
28.81 0.0838598
28.85 0.074424
28.89 0.0664074
28.93 0.101943
28.97 0.106629
29.01 0.105519
29.05 0.0605975
29.09 0.101546
29.13 0.107684
29.17 0.0316487
29.21 0.071682
29.25 0.0723944
29.29 -0.0110281
29.33 0.0802299
29.37 0.0594047
29.41 0.0194784
29.45 0.0569899
29.49 0.041263
29.53 0.0931884
29.57 0.106357
29.61 0.1493
29.65 0.137799
29.69 0.184692
29.73 0.13606
29.77 0.107158
29.81 0.0798947
29.85 0.11852
29.89 0.0529453
29.93 0.104774
29.97 0.145394
30.01 0.155558
30.05 0.26861
30.09 0.39454
30.13 0.414482
30.17 0.439033
30.21 0.391862
30.25 0.343874
30.29 0.195857
30.33 0.153343
30.37 0.15494
30.41 0.121558
30.45 0.221002
30.49 0.209268
30.53 0.191295
30.57 0.163918
30.61 0.201222
30.65 0.109263
30.69 0.133262
30.73 0.119482
30.77 0.107054
30.81 0.115269
30.85 0.152569
30.89 0.169858
30.93 0.250789
30.97 0.31678
31.01 0.356568
31.05 0.457061
31.09 0.535853
31.13 0.657428
31.17 0.937924
31.21 1.67616
31.25 3.96735
31.29 9.12338
31.33 16.7655
31.37 22.7026
31.41 21.2816
31.45 16.068
31.49 10.3947
31.53 6.34305
31.57 3.48459
31.61 1.79717
31.65 1.05435
31.69 0.921709
31.73 0.794376
31.77 0.769229
31.81 0.691632
31.85 0.52649
31.89 0.33043
31.93 0.248855
31.97 0.121508
32.01 0.120247
32.05 0.0955216
32.09 0.0837384
32.13 0.0390196
32.17 0.0528499
32.21 0.0294106
32.25 0.00927142
32.29 0.0534928
32.33 0.0327651
32.37 0.0412602
32.41 0.0124047
32.45 0.0104673
32.49 0.0185124
32.53 0.0178109
32.57 0.00850801
32.61 -0.0139472
32.65 0.0341853
32.69 0.0148924
32.73 0.00102449
32.77 -0.0160504
32.81 0.0313053
32.85 0.0148858
32.89 0.0211546
32.93 0.0465172
32.97 0.0339897
33.01 0.058991
33.05 0.0480749
33.09 0.0322749
33.13 0.00486553
33.17 0.0105756
33.21 0.043668
33.25 0.025715
33.29 0.0310517
33.33 0.0315829
33.37 -0.00614712
33.41 0.0412275
33.45 0.0312379
33.49 0.00910581
33.53 0.0261142
33.57 0.0658428
33.61 -0.00246148
33.65 0.0907096
33.69 0.155725
33.73 0.203504
33.77 0.342029
33.81 0.610774
33.85 0.739244
33.89 0.971825
33.93 0.968392
33.97 0.844984
34.01 0.624117
34.05 0.468211
34.09 0.351795
34.13 0.24645
34.17 0.261162
34.21 0.156843
34.25 0.157857
34.29 0.117071
34.33 0.167805
34.37 0.162244
34.41 0.204372
34.45 0.318614
34.49 0.360811
34.53 0.363874
34.57 0.400206
34.61 0.300593
34.65 0.222963
34.69 0.18994
34.73 0.153575
34.77 0.13161
34.81 0.157628
34.85 0.132911
34.89 0.248326
34.93 0.247966
34.97 0.253745
35.01 0.166441
35.05 0.106056
35.09 0.0826395
35.13 0.06109
35.17 0.0984322
35.21 0.0998391
35.25 0.070973
35.29 0.0812089
35.33 0.0454086
35.37 0.0271282
35.41 0.0109387
35.45 0.0263539
35.49 0.0523071
35.53 0.190398
35.57 0.323734
35.61 0.27795
35.65 0.195318
35.69 0.12005
35.73 0.0428969
35.77 0.014758
35.81 0.0165395
35.85 0.011893
35.89 0.00671525
35.93 0.0364804
35.97 0.0284398
36.01 0.0125725
36.05 0.0588459
36.09 0.0282757
36.13 0.0758523
36.17 0.0378994
36.21 0.0132861
36.25 0.021455
36.29 0.0130531
36.33 0.0173882
36.37 0.019748
36.41 0.0236145
36.45 0.0131786
36.49 -0.0101071
36.53 -0.00928561
36.57 0.01351
36.61 -0.00101287
36.65 0.0126981
36.69 0.0318531
36.73 0.0340916
36.77 -0.020975
36.81 -0.014224
36.85 0.0375128
36.89 0.000190826
36.93 0.0225044
36.97 0.0103329
37.01 -0.00594581
37.05 0.0133629
37.09 0.00455059
37.13 -0.00729896
37.17 0.0332968
37.21 0.0384321
37.25 0.0567921
37.29 0.0764445
37.33 0.106249
37.37 0.147115
37.41 0.232461
37.45 0.240024
37.49 0.306003
37.53 0.275239
37.57 0.295172
37.61 0.325166
37.65 0.433231
37.69 0.646236
37.73 1.30248
37.77 2.41147
37.81 3.27134
37.85 3.38829
37.89 2.89936
37.93 2.25535
37.97 1.60671
38.01 1.00674
38.05 0.641797
38.09 0.426485
38.13 0.337811
38.17 0.369517
38.21 0.330555
38.25 0.370158
38.29 0.305213
38.33 0.228129
38.37 0.156924
38.41 0.179152
38.45 0.0980833
38.49 0.0865627
38.53 0.0906745
38.57 0.0884127
38.61 0.0558802
38.65 0.041297
38.69 -0.0126323
38.73 0.0236678
38.77 -0.00940876
38.81 0.00502335
38.85 0.000144617
38.89 0.00713089
38.93 0.0165902
38.97 0.00255184
39.01 0.0158809
39.05 0.00965612
39.09 0.0415386
39.13 0.0333624
39.17 0.0305438
39.21 -0.000228653
39.25 0.00340516
39.29 0.0409911
39.33 0.0521151
39.37 0.0351715
39.41 0.0752904
39.45 0.0581461
39.49 0.0437907
39.53 0.00410898
39.57 0.016159
39.61 -0.00747401
39.65 -0.0131126
39.69 0.0570908
39.73 0.0595999
39.77 0.0698134
39.81 0.105272
39.85 0.15286
39.89 0.206934
39.93 0.244817
39.97 0.233853
40.01 0.244106
40.05 0.196489
40.09 0.152582
40.13 0.0821088
40.17 0.0763281
40.21 0.0698384
40.25 0.0443973
40.29 0.0523339
40.33 0.0143541
40.37 -0.00573808
40.41 0.0274055
40.45 0.0268558
40.49 0.0493946
40.53 0.00862713
40.57 0.00519517
40.61 0.00347926
40.65 0.0439029
40.69 -0.0147456
40.73 0.0453183
40.77 0.0704409
40.81 0.0659685
40.85 0.115468
40.89 0.079045
40.93 0.0665286
40.97 0.0467342
41.01 0.0556494
41.05 0.00930198
41.09 0.0131331
41.13 0.0233842
41.17 0.0253911
41.21 0.00843907
41.25 0.0233752
41.29 -0.00680169
41.33 -0.0100412
41.37 -0.00117325
41.41 -0.00526234
41.45 -0.0147606
41.49 0.00396954
41.53 0.0177709
41.57 0.0138418
41.61 0.0183188
41.65 -0.00347592
41.69 -0.0094832
41.73 0.00421784
41.77 0.0092927
41.81 0.0318566
41.85 0.0643784
41.89 0.036819
41.93 0.0517622
41.97 0.0417522
42.01 0.0115975
42.05 0.0426431
42.09 0.0187373
42.13 -0.0108346
42.17 -0.00470027
42.21 0.0232844
42.25 0.019475
42.29 -0.0164288
42.33 0.0174038
42.37 0.031838
42.41 -0.00869528
42.45 0.0144167
42.49 0.00617246
42.53 0.00384264
42.57 0.0124611
42.61 0.018347
42.65 0.0477113
42.69 0.0702064
42.73 0.0428587
42.77 0.0228162
42.81 0.0457621
42.85 0.0627902
42.89 0.0118403
42.93 -0.00684286
42.97 0.0557525
43.01 -0.00105152
43.05 0.0203721
43.09 0.0116115
43.13 0.0495292
43.17 0.00389101
43.21 0.00925991
43.25 0.0383003
43.29 0.0736582
43.33 0.0615829
43.37 0.068162
43.41 0.0740791
43.45 0.0577143
43.49 0.124936
43.53 0.107997
43.57 0.0985611
43.61 0.0782495
43.65 0.0681834
43.69 0.0542051
43.73 0.0768365
43.77 0.0780811
43.81 0.0763033
43.85 0.047883
43.89 0.0265423
43.93 0.0312823
43.97 0.0114618
44.01 0.0761707
44.05 0.0395236
44.09 0.0775443
44.13 0.120976
44.17 0.280418
44.21 0.337086
44.25 0.34618
44.29 0.400843
44.33 0.33597
44.37 0.359886
44.41 0.663743
44.45 0.819809
44.49 0.700221
44.53 0.500872
44.57 0.260102
44.61 0.22088
44.65 0.149485
44.69 0.0625478
44.73 0.0810133
44.77 0.112244
44.81 0.115057
44.85 0.111176
44.89 0.222862
44.93 0.256597
44.97 0.297689
45.01 0.32298
45.05 0.384395
45.09 0.534296
45.13 0.517081
45.17 0.485698
45.21 0.482678
45.25 0.391453
45.29 0.315862
45.33 0.232732
45.37 0.195994
45.41 0.0931791
45.45 0.0877999
45.49 0.0251755
45.53 0.00367907
45.57 0.0372748
45.61 -0.0121164
45.65 0.00277061
45.69 0.0146962
45.73 0.0472955
45.77 0.051297
45.81 0.0350693
45.85 0.0602167
45.89 0.0452352
45.93 0.0924557
45.97 0.115346
46.01 0.306456
46.05 0.360084
46.09 0.52498
46.13 0.800126
46.17 0.972556
46.21 1.11077
46.25 1.06353
46.29 1.02379
46.33 0.735054
46.37 0.577895
46.41 0.404118
46.45 0.267756
46.49 0.141578
46.53 0.0683583
46.57 0.061709
46.61 0.0679416
46.65 0.035575
46.69 -0.012576
46.73 0.0268435
46.77 -0.00570281
46.81 0.0103461
46.85 0.0229775
46.89 0.00257944
46.93 0.00151357
46.97 -0.00289579
47.01 0.0262124
47.05 0.00930824
47.09 0.0188109
47.13 -0.0101927
47.17 0.0237702
47.21 0.0335653
47.25 0.036951
47.29 0.0476098
47.33 0.0491181
47.37 0.0697225
47.41 0.0580151
47.45 0.0368495
47.49 0.0122386
47.53 0.0276229
47.57 0.00586664
47.61 0.0111947
47.65 -0.00677816
47.69 -0.0115284
47.73 0.00848226
47.77 0.00507308
47.81 0.0424478
47.85 0.00853149
47.89 -0.00567478
47.93 -0.0196883
47.97 0.0102685
48.01 0.0457663
48.05 0.0432384
48.09 0.0440267
48.13 0.00420879
48.17 0.0318946
48.21 0.0166864
48.25 0.06093
48.29 0.0349182
48.33 0.0292785
48.37 0.0121804
48.41 -0.0196911
48.45 0.0242169
48.49 0.0400988
48.53 0.0928258
48.57 0.118791
48.61 0.164025
48.65 0.198017
48.69 0.28923
48.73 0.345882
48.77 0.362668
48.81 0.364066
48.85 0.362467
48.89 0.351938
48.93 0.338323
48.97 0.398479
49.01 0.501845
49.05 0.819611
49.09 1.39063
49.13 1.91109
49.17 2.01682
49.21 1.71158
49.25 1.22764
49.29 0.731946
49.33 0.467364
49.37 0.367441
49.41 0.364059
49.45 0.306889
49.49 0.259274
49.53 0.226489
49.57 0.148452
49.61 0.124951
49.65 0.102868
49.69 0.0820437
49.73 0.0477323
49.77 0.0203527
49.81 0.0248971
49.85 0.00384393
49.89 0.0067557
49.93 0.0208342
49.97 0.0234774
50.01 0.0212964
50.05 0.0140542
50.09 0.0218565
50.13 0.0187208
50.17 0.0207563
50.21 0.0297061
50.25 0.0347286
50.29 0.040784
50.33 0.0272542
50.37 0.0511333
50.41 0.0378134
50.45 0.0411593
50.49 0.0310447
50.53 0.0365598
50.57 0.0383189
50.61 0.0132521
50.65 0.024941
50.69 -0.0115034
50.73 0.0254344
50.77 0.0290408
50.81 0.000545888
50.85 0.00236122
50.89 0.0221213
50.93 -0.0127816
50.97 0.0108881
51.01 0.0106608
51.05 0.0169051
51.09 0.0340408
51.13 0.0485236
51.17 0.0364185
51.21 0.0678393
51.25 0.0353247
51.29 0.0592232
51.33 0.0191977
51.37 0.0725459
51.41 0.0375375
51.45 0.0432798
51.49 0.0794885
51.53 0.0669986
51.57 0.100403
51.61 0.105721
51.65 0.123879
51.69 0.0878662
51.73 0.0676387
51.77 0.083451
51.81 0.0408343
51.85 0.0264758
51.89 0.0181689
51.93 0.0171371
51.97 0.0126575
52.01 0.0128018
52.05 -0.000567552
52.09 0.0123477
52.13 -0.0105409
52.17 0.0175436
52.21 0.0125388
52.25 0.00920079
52.29 0.00745143
52.33 0.00112624
52.37 0.00665468
52.41 0.00947949
52.45 0.0143681
52.49 0.0315652
52.53 0.0246453
52.57 0.0322596
52.61 0.0109963
52.65 0.0271994
52.69 0.0226402
52.73 0.0555582
52.77 0.0269421
52.81 0.0288216
52.85 0.0581316
52.89 0.0425931
52.93 0.0553517
52.97 0.0222532
53.01 0.0470272
53.05 0.0307594
53.09 0.0343279
53.13 0.0200906
53.17 0.0228469
53.21 0.0125459
53.25 0.0196771
53.29 -0.0105321
53.33 0.00531246
53.37 0.015002
53.41 0.0132321
53.45 0.0158181
53.49 0.0052917
53.53 0.0297584
53.57 0.0185594
53.61 0.0413491
53.65 0.0327629
53.69 0.0345179
53.73 0.0728
53.77 0.0752393
53.81 0.0778626
53.85 0.131316
53.89 0.0975592
53.93 0.124897
53.97 0.121544
54.01 0.0754052
54.05 0.0387963
54.09 0.0545543
54.13 0.0133138
54.17 0.0433244
54.21 0.0456357
54.25 0.0459258
54.29 0.033871
54.33 0.070756
54.37 0.0664557
54.41 0.062601
54.45 0.100472
54.49 0.059388
54.53 0.0891608
54.57 0.08805
54.61 0.103506
54.65 0.143215
54.69 0.124725
54.73 0.10076
54.77 0.0909124
54.81 0.0427836
54.85 0.0394951
54.89 0.0415614
54.93 0.0772205
54.97 0.0909429
55.01 0.116492
55.05 0.078087
55.09 0.122334
55.13 0.108825
55.17 0.092313
55.21 0.113141
55.25 0.091991
55.29 0.0677356
55.33 0.0528177
55.37 0.0475923
55.41 0.0142857
55.45 0.00247034
55.49 0.025498
55.53 0.00206128
55.57 -0.00452651
55.61 0.0271889
55.65 0.0213195
55.69 0.0325401
55.73 0.0634203
55.77 0.0591184
55.81 0.0716278
55.85 0.076565
55.89 0.0663562
55.93 0.059248
55.97 0.0730076
56.01 0.056209
56.05 0.0703285
56.09 0.0553089
56.13 0.0969307
56.17 0.0363979
56.21 0.0855841
56.25 0.0473352
56.29 0.0565089
56.33 0.0591597
56.37 0.0892542
56.41 0.0805145
56.45 0.0726705
56.49 0.0394664
56.53 0.0694514
56.57 0.0295766
56.61 0.0252944
56.65 0.0171215
56.69 0.0220936
56.73 -0.0111074
56.77 0.0166527
56.81 0.0260969
56.85 0.00630068
56.89 0.0147547
56.93 0.0430634
56.97 0.0326293
57.01 0.0297422
57.05 0.0227882
57.09 0.0266289
57.13 -0.00130967
57.17 0.00474125
57.21 0.0173326
57.25 0.0267335
57.29 0.0321323
57.33 0.0479403
57.37 0.0218164
57.41 0.01783
57.45 0.0475706
57.49 0.0433652
57.53 0.0544997
57.57 0.034976
57.61 0.0196348
57.65 0.0453668
57.69 -0.00594809
57.73 0.0261447
57.77 0.00766229
57.81 0.0360757
57.85 0.0700649
57.89 0.0519815
57.93 0.0527926
57.97 0.0312194
58.01 0.039781
58.05 0.0518708
58.09 0.0207508
58.13 0.0381264
58.17 0.0468655
58.21 0.0144232
58.25 0.0795571
58.29 0.0499111
58.33 0.0305432
58.37 0.0721402
58.41 0.0516828
58.45 0.0699816
58.49 0.0374005
58.53 0.0443241
58.57 0.0484102
58.61 0.0586956
58.65 0.0467345
58.69 0.0681562
58.73 0.0701076
58.77 0.0574195
58.81 0.0423943
58.85 0.0811105
58.89 0.0618925
58.93 0.0469322
58.97 0.0639025
59.01 0.0688957
59.05 0.075453
59.09 0.0824528
59.13 0.0905089
59.17 0.0823658
59.21 0.109585
59.25 0.0670024
59.29 0.0830529
59.33 0.047031
59.37 0.0535407
59.41 0.0471021
59.45 0.0607984
59.49 0.000596394
59.53 0.00969627
59.57 0.0339771
59.61 0.0325743
59.65 0.027027
59.69 0.0202808
59.73 0.0261841
59.77 0.0247735
59.81 0.0407544
59.85 0.0602077
59.89 0.0429428
59.93 0.0288378
59.97 0.019915
60.01 0.0532059
60.05 0.0337296
60.09 0.023842
60.13 0.0310217
60.17 -0.00226864
60.21 0.0188976
60.25 -0.0168064
60.29 0.054575
60.33 0.00509851
60.37 0.0230347
60.41 0.0270389
60.45 0.00280422
60.49 0.0260388
60.53 0.0129551
60.57 0.00837856
60.61 0.0316414
60.65 0.0132337
60.69 0.00539077
60.73 0.0170425
60.77 0.00887397
60.81 0.0245871
60.85 0.024293
60.89 -0.0120861
60.93 -0.0156322
60.97 0.0104041
61.01 0.00718554
61.05 0.0351791
61.09 0.0314834
61.13 0.0227239
61.17 0.0850594
61.21 0.0819152
61.25 0.089855
61.29 0.0948421
61.33 0.109083
61.37 0.104047
61.41 0.171216
61.45 0.166536
61.49 0.214274
61.53 0.242909
61.57 0.233712
61.61 0.238419
61.65 0.286145
61.69 0.228478
61.73 0.192155
61.77 0.164466
61.81 0.163806
61.85 0.0923126
61.89 0.0776452
61.93 0.0700242
61.97 0.034806
62.01 -0.0162884
62.05 0.00954676
62.09 0.0260311
62.13 0.03113
62.17 0.0375449
62.21 0.0607869
62.25 0.0368004
62.29 0.0330345
62.33 0.0266886
62.37 0.0458176
62.41 0.0832928
62.45 0.12751
62.49 0.0981575
62.53 0.0821678
62.57 0.0447893
62.61 0.0340483
62.65 0.0699405
62.69 0.0300899
62.73 0.0576437
62.77 0.0331614
62.81 0.0379254
62.85 0.0505044
62.89 0.038489
62.93 0.07406
62.97 0.100693
63.01 0.0897448
63.05 0.110757
63.09 0.0838688
63.13 0.110287
63.17 0.0866047
63.21 0.0899194
63.25 0.0991283
63.29 0.166283
63.33 0.170742
63.37 0.15895
63.41 0.0923575
63.45 0.148079
63.49 0.179692
63.53 0.202996
63.57 0.233247
63.61 0.177504
63.65 0.184239
63.69 0.157317
63.73 0.127385
63.77 0.0700766
63.81 0.0693055
63.85 0.0485893
63.89 0.0334661
63.93 0.0052826
63.97 0.0340206
64.01 0.0425367
64.05 0.0278259
64.09 0.0119915
64.13 0.0242012
64.17 0.0449207
64.21 0.010821
64.25 0.0378362
64.29 -0.00746699
64.33 0.0271664
64.37 0.0226447
64.41 0.0115778
64.45 0.00748771
64.49 0.0122514
64.53 0.00594706
64.57 0.0196597
64.61 0.0230155
64.65 0.03288
64.69 0.0148614
64.73 0.0338308
64.77 0.0284609
64.81 0.0312332
64.85 0.0297132
64.89 0.0450017
64.93 0.0185419
64.97 0.0359297
65.01 0.0118307
65.05 0.0250406
65.09 0.0059105
65.13 0.0382845
65.17 0.0278696
65.21 -0.00363579
65.25 0.0135301
65.29 0.0122879
65.33 -0.00117758
65.37 0.0137362
65.41 0.0308326
65.45 0.0131303
65.49 0.0466133
65.53 0.0485036
65.57 0.0513056
65.61 0.0527611
65.65 0.0400485
65.69 0.0457991
65.73 0.0449666
65.77 0.0492015
65.81 0.00123959
65.85 0.0459486
65.89 0.105197
65.93 0.131129
65.97 0.16909
66.01 0.17725
66.05 0.156391
66.09 0.132248
66.13 0.134873
66.17 0.0927472
66.21 0.0937571
66.25 0.102071
66.29 0.0791832
66.33 0.110133
66.37 0.126745
66.41 0.144332
66.45 0.207096
66.49 0.196856
66.53 0.20431
66.57 0.238411
66.61 0.261859
66.65 0.195175
66.69 0.231564
66.73 0.213002
66.77 0.190323
66.81 0.133955
66.85 0.131315
66.89 0.118462
66.93 0.0860493
66.97 0.0606972
67.01 0.0564529
67.05 0.0661472
67.09 0.0658705
67.13 0.0420247
67.17 0.0476584
67.21 0.0232946
67.25 0.0336862
67.29 0.0397659
67.33 0.0411964
67.37 0.0524447
67.41 0.0640626
67.45 0.0768456
67.49 0.0616614
67.53 0.0811426
67.57 0.0387257
67.61 0.0876472
67.65 0.0881901
67.69 0.136961
67.73 0.134605
67.77 0.154151
67.81 0.13182
67.85 0.0762848
67.89 0.0497869
67.93 0.028292
67.97 0.052754
68.01 0.0093398
68.05 0.0339486
68.09 0.0172189
68.13 0.0165286
68.17 0.0252174
68.21 0.0160655
68.25 -0.0153167
68.29 0.0340036
68.33 0.0190439
68.37 0.00760994
68.41 -0.000761663
68.45 0.0134221
68.49 0.0138195
68.53 0.00147345
68.57 -0.00164385
68.61 -0.00968418
68.65 0.0247017
68.69 0.0257187
68.73 0.0159244
68.77 0.0063811
68.81 0.0417682
68.85 0.0180758
68.89 0.00453951
68.93 0.0198341
68.97 0.015328
69.01 0.0227582
69.05 -0.00684922
69.09 -0.00183041
69.13 0.0136894
69.17 0.0064764
69.21 -0.00980443
69.25 0.0050846
69.29 -5.6691e-05
69.33 0.00417736
69.37 0.0227831
69.41 -0.0011768
69.45 -0.00260678
69.49 0.0341369
69.53 0.00247597
69.57 0.0141862
69.61 0.0104156
69.65 0.00107765
69.69 0.00271492
69.73 -0.0121736
69.77 0.0486198
69.81 0.0136951
69.85 0.00307922
69.89 0.0280365
69.93 0.0416792
69.97 0.0704835
70.01 0.0204993
70.05 0.0213632
70.09 0.0503859
70.13 0.0556543
70.17 0.0450967
70.21 0.0524865
70.25 0.0724481
70.29 0.0640734
70.33 0.0803841
70.37 0.140041
70.41 0.144103
70.45 0.113194
70.49 0.126541
70.53 0.125758
70.57 0.107902
70.61 0.0983599
70.65 0.0821393
70.69 0.0708079
70.73 0.0948117
70.77 0.0968986
70.81 0.0765323
70.85 0.0553647
70.89 0.0526317
70.93 0.0613019
70.97 0.0676472
71.01 0.0468264
71.05 0.0784532
71.09 0.0606908
71.13 0.0417426
71.17 0.0287042
71.21 0.0294677
71.25 0.0384375
71.29 0.0240306
71.33 0.0240015
71.37 0.00417627
71.41 0.0155726
71.45 0.0212645
71.49 -0.00264063
71.53 0.0363416
71.57 0.0243401
71.61 -0.00925658
71.65 0.0268085
71.69 0.0269262
71.73 0.0115204
71.77 0.00219386
71.81 0.0246147
71.85 0.0144438
71.89 0.01393
71.93 0.036439
71.97 0.0251344
72.01 0.032464
72.05 0.0396131
72.09 0.0330428
72.13 0.0418472
72.17 0.0192445
72.21 0.018654
72.25 0.0128898
72.29 -0.00592758
72.33 0.0230325
72.37 -0.0032481
72.41 -0.00713452
72.45 0.0161904
72.49 0.00866027
72.53 0.00444572
72.57 -0.0151179
72.61 -0.00780804
72.65 0.00539414
72.69 -0.00791881
72.73 -0.00118194
72.77 0.0321246
72.81 0.0365526
72.85 0.0363996
72.89 0.0224717
72.93 0.0501926
72.97 0.057836
73.01 0.0610485
73.05 0.0725153
73.09 0.089868
73.13 0.0914625
73.17 0.0788734
73.21 0.0859516
73.25 0.125285
73.29 0.0771687
73.33 0.113154
73.37 0.123615
73.41 0.137223
73.45 0.11804
73.49 0.0600427
73.53 0.0582265
73.57 0.0508216
73.61 0.0700403
73.65 0.0398997
73.69 0.0300913
73.73 0.043746
73.77 0.0345475
73.81 0.0266961
73.85 0.0125361
73.89 0.0131071
73.93 0.0552433
73.97 0.0310084
74.01 0.0264506
74.05 0.0226831
74.09 0.0445385
74.13 0.00492171
74.17 0.0297739
74.21 0.00767346
74.25 0.0113036
74.29 0.00317872
74.33 0.0111138
74.37 0.00747514
74.41 0.00404481
74.45 -0.0160165
74.49 -0.012205
74.52 -0.0174171