File: data/xrd/xy/2019-05-23TO2_12_25.720560+00_00_LBL_B1.xy
'Id: "" Comment: "Integrate frame 06062019_neo_Pentyl_02_002.gfrmwith cursor Wedge Cursor #2" Operator: "UC Berkeley" Anode: "Co" Scantype: "TwoTheta" TimePerStep: "600"
14.335 -0.0251195
14.37 -0.0220851
14.405 0.0600324
14.44 0.0459434
14.475 0.0340128
14.51 -0.0245812
14.545 0.00786582
14.58 -0.0231567
14.615 0.0306673
14.65 0.000728724
14.685 0.0286018
14.72 0.0264986
14.755 0.0637357
14.79 0.0279712
14.825 0.0349325
14.86 0.037601
14.895 0.0281148
14.93 -0.00738294
14.965 0.0201528
15 0.00153395
15.035 0.0318961
15.07 0.0271207
15.105 0.0234301
15.14 0.0088566
15.175 -0.0161202
15.21 0.0240586
15.245 0.0324267
15.28 0.0250163
15.315 -0.00544152
15.35 -0.00628389
15.385 -0.0105993
15.42 0.0266261
15.455 -0.000173491
15.49 0.00870955
15.525 -0.00796715
15.56 -0.00559384
15.595 0.0473594
15.63 3.11698e-05
15.665 0.0552952
15.7 0.0240813
15.735 0.0217328
15.77 -0.0109964
15.805 0.0376021
15.84 0.00819594
15.875 0.0427229
15.91 0.0505648
15.945 0.0232258
15.98 0.0143351
16.015 0.0329279
16.05 0.0175533
16.085 0.0415203
16.12 0.043499
16.155 0.0278049
16.19 0.0567201
16.225 0.0465021
16.26 0.0530971
16.295 0.0139423
16.33 0.0528165
16.365 0.0528147
16.4 0.0357186
16.435 0.0435804
16.47 0.0733337
16.505 0.0831319
16.54 0.0664234
16.575 0.0372944
16.61 0.0633794
16.645 0.0581818
16.68 0.0671325
16.715 0.0386036
16.75 0.059853
16.785 0.0678262
16.82 0.0347454
16.855 0.0688662
16.89 0.0469334
16.925 0.0276646
16.96 0.0690664
16.995 0.0368109
17.03 0.0489344
17.065 0.0640364
17.1 0.0121394
17.135 0.0685117
17.17 0.0292043
17.205 0.0674806
17.24 0.0582247
17.275 0.0450101
17.31 0.0844767
17.345 0.0675256
17.38 0.0545057
17.415 0.00176629
17.45 0.0406077
17.485 0.0819327
17.52 0.0744371
17.555 0.0387074
17.59 0.011551
17.625 0.0562256
17.66 0.0801982
17.695 0.0203354
17.73 0.0606196
17.765 0.11498
17.8 0.0618298
17.835 0.0641565
17.87 0.0651733
17.905 0.0257939
17.94 0.0400951
17.975 0.0366952
18.01 0.0363845
18.045 0.0237449
18.08 0.0116951
18.115 0.043822
18.15 0.0228559
18.185 0.0538594
18.22 0.068795
18.255 0.0562678
18.29 0.0258466
18.325 0.0559802
18.36 0.0623789
18.395 0.0264785
18.43 0.061343
18.465 0.0499728
18.5 0.0456211
18.535 0.0521465
18.57 0.0051273
18.605 0.0465427
18.64 0.00884525
18.675 0.02769
18.71 0.0121928
18.745 0.0903527
18.78 0.0194093
18.815 0.0176517
18.85 0.0318758
18.885 0.063948
18.92 0.0515101
18.955 0.015443
18.99 0.108003
19.025 0.00342848
19.06 0.0471454
19.095 0.0307028
19.13 0.0788983
19.165 0.0432424
19.2 0.0993131
19.235 0.0394844
19.27 0.00181774
19.305 0.049796
19.34 0.0680016
19.375 0.0438375
19.41 0.0770694
19.445 0.0464064
19.48 0.0672285
19.515 0.0677977
19.55 0.046868
19.585 0.0359358
19.62 0.0416935
19.655 0.0722828
19.69 0.0762158
19.725 0.0414392
19.76 -0.00797785
19.795 0.0355979
19.83 0.0495943
19.865 0.0466461
19.9 0.0671162
19.935 0.0398657
19.97 0.0480844
20.005 0.0531589
20.04 0.0343917
20.075 -0.00984539
20.11 0.0173891
20.145 0.048854
20.18 0.0579365
20.215 0.0367621
20.25 0.046863
20.285 0.065005
20.32 0.0335859
20.355 0.0156968
20.39 0.043834
20.425 0.0482247
20.46 0.0597528
20.495 0.00287561
20.53 0.029004
20.565 0.036247
20.6 0.01236
20.635 0.0293961
20.67 0.0383639
20.705 0.0319812
20.74 0.0148675
20.775 0.0441384
20.81 0.023187
20.845 0.0379583
20.88 0.0460447
20.915 0.0242598
20.95 0.0181609
20.985 0.0174235
21.02 0.0340677
21.055 0.00388115
21.09 -0.002695
21.125 0.0113382
21.16 0.0083784
21.195 0.0427994
21.23 0.0464312
21.265 0.0678226
21.3 0.0210497
21.335 0.0306969
21.37 0.024748
21.405 0.0529382
21.44 0.00886517
21.475 0.053258
21.51 0.0637759
21.545 0.000779555
21.58 0.0725483
21.615 0.0309897
21.65 0.00928269
21.685 0.0513058
21.72 0.0448155
21.755 0.040524
21.79 0.0430992
21.825 0.0270692
21.86 0.00726195
21.895 0.0335132
21.93 0.0101858
21.965 0.0191966
22 0.0263885
22.035 0.0503653
22.07 0.0139492
22.105 0.0288985
22.14 0.00490439
22.175 0.0161409
22.21 0.0442635
22.245 0.0334203
22.28 0.0469645
22.315 0.0147289
22.35 -0.0235379
22.385 0.0414857
22.42 0.0123658
22.455 0.0127739
22.49 0.0250429
22.525 0.0253052
22.56 0.0280906
22.595 0.028047
22.63 0.0456017
22.665 0.0185459
22.7 0.0115627
22.735 0.000228641
22.77 0.0402853
22.805 0.0134419
22.84 0.0270064
22.875 0.0325678
22.91 -0.00752687
22.945 0.0195865
22.98 0.0368899
23.015 0.0384649
23.05 0.0335775
23.085 0.0261315
23.12 0.0291901
23.155 0.0318369
23.19 -0.00504598
23.225 0.0210811
23.26 0.0290686
23.295 -0.0151419
23.33 0.0350224
23.365 0.0280296
23.4 -0.00603016
23.435 -0.0113907
23.47 0.0160105
23.505 0.0439819
23.54 -0.0120018
23.575 0.0369496
23.61 0.0257909
23.645 0.0223758
23.68 0.023363
23.715 0.0130677
23.75 0.00880159
23.785 0.0456851
23.82 -0.00582829
23.855 0.00397323
23.89 0.00979365
23.925 0.0377043
23.96 0.0402086
23.995 0.0115931
24.03 0.0329974
24.065 0.0488597
24.1 0.0231588
24.135 0.0436262
24.17 0.0286684
24.205 0.057447
24.24 0.00695794
24.275 -0.00355287
24.31 0.0376033
24.345 0.0552072
24.38 0.0241575
24.415 0.0155303
24.45 0.0213957
24.485 0.0292248
24.52 -0.0187997
24.555 0.0301731
24.59 0.0146472
24.625 0.038916
24.66 0.0539574
24.695 0.0137755
24.73 0.0186604
24.765 0.00817334
24.8 0.0195562
24.835 0.0214217
24.87 -0.0112071
24.905 0.052849
24.94 0.0139584
24.975 0.0377638
25.01 -0.00422596
25.045 0.0211744
25.08 0.0235369
25.115 0.0098229
25.15 0.04239
25.185 -0.0176379
25.22 0.00187733
25.255 0.0452664
25.29 0.019472
25.325 0.0284127
25.36 0.036928
25.395 0.0346823
25.43 -0.0223045
25.465 -0.0204776
25.5 0.026616
25.535 0.027554
25.57 0.00593357
25.605 -0.00493023
25.64 0.00447352
25.675 -0.00322621
25.71 0.000875461
25.745 -0.0136813
25.78 -0.0129189
25.815 -0.0157395
25.85 0.00356031
25.885 0.0216423
25.92 -0.0172438
25.955 0.036425
25.99 0.0070155
26.025 0.0257567
26.06 -0.00212248
26.095 0.0416082
26.13 0.0193225
26.165 0.0319493
26.2 0.0197298
26.235 0.000493553
26.27 -0.0105162
26.305 0.00647597
26.34 -0.00391519
26.375 0.012648
26.41 0.00474957
26.445 0.0359731
26.48 0.0278452
26.515 0.00305172
26.55 0.0107045
26.585 0.0143579
26.62 0.00105663
26.655 0.025058
26.69 0.0249096
26.725 0.0317511
26.76 0.0477558
26.795 0.0395139
26.83 0.0456921
26.865 0.0522896
26.9 0.0179399
26.935 0.00889516
26.97 0.0186845
27.005 0.0199617
27.04 0.0449087
27.075 0.0685725
27.11 0.0531696
27.145 0.0506695
27.18 0.0329365
27.215 0.0696728
27.25 0.0446051
27.285 0.0521751
27.32 0.0508227
27.355 -0.0119605
27.39 0.031889
27.425 0.0455754
27.46 0.0159524
27.495 0.0195132
27.53 0.00772748
27.565 0.0181284
27.6 0.0441878
27.635 0.00794235
27.67 0.03141
27.705 0.0270456
27.74 0.0152638
27.775 0.0491329
27.81 0.0156932
27.845 0.0391239
27.88 0.0182533
27.915 0.0428697
27.95 0.0101843
27.985 0.0475332
28.02 0.0205638
28.055 0.0345476
28.09 0.0289687
28.125 0.0361546
28.16 0.0215409
28.195 0.0236721
28.23 0.0283385
28.265 0.039949
28.3 -0.00458646
28.335 0.00925413
28.37 0.021975
28.405 -0.012766
28.44 0.00511125
28.475 0.0167525
28.51 0.00222864
28.545 0.0185669
28.58 0.00901704
28.615 0.00918842
28.65 -0.0128969
28.685 0.0148453
28.72 0.0340075
28.755 0.00480354
28.79 0.009683
28.825 0.00202028
28.86 0.0147788
28.895 0.0589665
28.93 0.0354318
28.965 0.0375074
29 0.056647
29.035 0.057903
29.07 0.0612922
29.105 0.0542187
29.14 0.0328442
29.175 0.0522408
29.21 0.00973409
29.245 0.0504326
29.28 0.0586536
29.315 0.0294152
29.35 0.0541634
29.385 0.0542392
29.42 0.0311542
29.455 0.0340264
29.49 0.0267999
29.525 0.0914366
29.56 0.0808761
29.595 0.135637
29.63 0.138129
29.665 0.102283
29.7 0.092931
29.735 0.0796709
29.77 0.0793384
29.805 0.0630973
29.84 0.0329553
29.875 0.0245418
29.91 0.0157452
29.945 0.00684872
29.98 0.0608667
30.015 0.0640387
30.05 0.0603614
30.085 0.0994529
30.12 0.121375
30.155 0.15603
30.19 0.117488
30.225 0.125599
30.26 0.10382
30.295 0.0681019
30.33 0.0943792
30.365 0.0451437
30.4 0.0369296
30.435 0.0180445
30.47 0.040183
30.505 0.02251
30.54 0.0105353
30.575 0.0268066
30.61 -0.00173278
30.645 0.0229534
30.68 0.0287946
30.715 0.0189027
30.75 0.0136296
30.785 0.0265577
30.82 0.00772999
30.855 0.0152912
30.89 0.0238183
30.925 0.033589
30.96 0.0186467
30.995 0.0280355
31.03 0.0339378
31.065 0.0151536
31.1 0.0167169
31.135 -0.00550618
31.17 0.00579522
31.205 0.0282103
31.24 0.0118931
31.275 0.0287306
31.31 0.00537595
31.345 0.0111862
31.38 0.0310264
31.415 0.00503939
31.45 0.00184953
31.485 0.0113457
31.52 0.0259872
31.555 -0.00478602
31.59 0.0403275
31.625 0.0358023
31.66 0.0157687
31.695 0.00494932
31.73 0.00800259
31.765 0.00997898
31.8 0.00196579
31.835 0.0270421
31.87 -0.00330928
31.905 -0.00274944
31.94 0.0159149
31.975 0.0317734
32.01 0.0166118
32.045 0.0122872
32.08 0.0253009
32.115 0.0185059
32.15 0.00364661
32.185 0.0210913
32.22 0.0148623
32.255 0.00155475
32.29 0.0220257
32.325 0.0251541
32.36 0.00142509
32.395 0.00750861
32.43 -0.0243579
32.465 0.0175762
32.5 0.0241785
32.535 0.024097
32.57 0.02224
32.605 0.0362143
32.64 0.0231177
32.675 0.0298706
32.71 0.0124084
32.745 0.0320537
32.78 0.0305674
32.815 0.0423511
32.85 0.0484757
32.885 0.048496
32.92 0.0610389
32.955 0.0686446
32.99 0.0461981
33.025 0.0531598
33.06 0.0617346
33.095 0.078599
33.13 0.0614669
33.165 0.0398546
33.2 0.0507104
33.235 0.0515774
33.27 0.0368559
33.305 0.0288874
33.34 0.0311324
33.375 0.033375
33.41 0.0487269
33.445 0.0353494
33.48 0.0208059
33.515 0.0185246
33.55 0.0203929
33.585 0.0260571
33.62 0.0207561
33.655 0.0184395
33.69 0.0375425
33.725 0.00298131
33.76 0.0228473
33.795 0.0297701
33.83 0.021293
33.865 0.015884
33.9 0.0339925
33.935 0.0258917
33.97 0.0388451
34.005 0.0288226
34.04 0.0405166
34.075 0.0423895
34.11 0.036456
34.145 0.0223266
34.18 0.0429281
34.215 0.0366367
34.25 0.0531596
34.285 0.0399592
34.32 0.0659429
34.355 0.0626709
34.39 0.0857927
34.425 0.0986031
34.46 0.130055
34.495 0.130502
34.53 0.116171
34.565 0.126727
34.6 0.110828
34.635 0.103789
34.67 0.0835585
34.705 0.0821105
34.74 0.0448741
34.775 0.0316084
34.81 0.0374621
34.845 0.0543647
34.88 0.0630146
34.915 0.0273366
34.95 0.0442428
34.985 0.0549531
35.02 0.033065
35.055 0.0420005
35.09 0.0398725
35.125 0.0481972
35.16 0.0452902
35.195 0.0204971
35.23 0.0456903
35.265 0.0307937
35.3 0.0448805
35.335 0.0225991
35.37 0.0261006
35.405 0.03749
35.44 0.032109
35.475 0.0322304
35.51 0.0247478
35.545 0.0495215
35.58 0.0387001
35.615 0.0426564
35.65 0.0263231
35.685 0.0509597
35.72 0.0256459
35.755 0.0362028
35.79 0.0371931
35.825 0.0316198
35.86 0.0380682
35.895 0.0509131
35.93 0.0429361
35.965 0.0596362
36 0.0606303
36.035 0.0565097
36.07 0.085736
36.105 0.0660998
36.14 0.0601203
36.175 0.0629973
36.21 0.0505423
36.245 0.0637939
36.28 0.0570192
36.315 0.0444971
36.35 0.035093
36.385 0.0412716
36.42 0.0123631
36.455 0.027675
36.49 0.00928972
36.525 0.0141986
36.56 0.0160724
36.595 0.0165583
36.63 0.0251158
36.665 0.0106327
36.7 0.00319261
36.735 0.0120056
36.77 -0.0194865
36.805 -0.00708662
36.84 -0.00212122
36.875 -0.000126841
36.91 -0.0156683
36.945 0.00483096
36.98 -0.00445009
37.015 -0.00604836
37.05 -0.00803464
37.085 0.00545724
37.12 0.00623555
37.155 -0.0122204
37.19 0.00613171
37.225 0.00326659
37.26 0.00822189
37.295 0.0044723
37.33 -0.00781788
37.365 -0.0186521
37.4 -0.00347987
37.435 0.00877344
37.47 0.00609106
37.505 -0.0200152
37.54 -0.0028572
37.575 0.00725186
37.61 0.00420731
37.645 -0.00091613
37.68 0.00995115
37.715 0.000282989
37.75 -0.00313639
37.785 0.00827779
37.82 0.00194629
37.855 -0.00578346
37.89 -0.00727795
37.925 -0.00106565
37.96 0.00373946
37.995 0.0159365
38.03 0.0151047
38.065 0.000445966
38.1 0.00343154
38.135 -0.00814315
38.17 0.010444
38.205 -0.0179196
38.24 -0.0100038
38.275 0.0023272
38.31 0.00531437
38.345 -0.00478743
38.38 -0.009553
38.415 0.000435989
38.45 0.00155668
38.485 0.00186575
38.52 0.00626043
38.555 -0.0045818
38.59 -0.00750978
38.625 0.00684114
38.66 0.00363827
38.695 0.0028615
38.73 0.00101007
38.765 -0.000455995
38.8 0.0108467
38.835 -0.00953189
38.87 -0.010353
38.905 -0.00269128
38.94 0.00531102
38.975 0.00336601
39.01 0.00200237
39.045 -0.000277409
39.08 0.00152284
39.115 -0.00521624
39.15 0.0118484
39.185 -0.0101532
39.22 -0.00656949
39.255 -0.011455
39.29 -0.00545182
39.325 0.00141794
39.36 0.00173317
39.395 0.010885
39.43 -0.0135647
39.465 0.0066961
39.5 0.000926035
39.535 -0.00540813
39.57 -0.00816525
39.605 -0.00251888
39.64 0.00583141
39.675 0.00117091
39.71 0.0102863
39.745 0.00291572
39.78 0.0092692
39.815 0.0196366
39.85 0.0278655
39.885 0.0321004
39.92 0.0505595
39.955 0.047384
39.99 0.0396798
40.025 0.0316716
40.06 0.0379271
40.095 0.0133475
40.13 0.0117529
40.165 0.0155661
40.2 0.0154057
40.235 0.00199164
40.27 -0.00838338
40.305 0.00752142
40.34 -0.00723578
40.375 -0.0133306
40.41 -0.00524573
40.445 -0.00264428
40.48 0.00797325
40.515 -0.000923869
40.55 0.00637718
40.585 0.010116
40.62 0.00273242
40.655 0.00426564
40.69 -0.014118
40.725 0.000962679
40.76 -0.00537919
40.795 0.00562492
40.83 -0.0025379
40.865 -0.00703267
40.9 -0.00310136
40.935 -0.0178384
40.97 -0.0209633
41.005 -0.00106058
41.04 -0.0101277
41.075 -0.00159881
41.11 -0.000595748
41.145 -0.00791629
41.18 0.00243468
41.215 -0.00998433
41.25 -0.0116727
41.285 0.00717953
41.32 0.00533466
41.355 -0.00217866
41.39 -0.00945076
41.425 0.00531059
41.46 -0.00727119
41.495 0.0069899
41.53 -0.00717487
41.565 -0.0100405
41.6 -0.00811271
41.635 -0.00905825
41.67 0.00854846
41.705 -0.00209764
41.74 -0.00133415
41.775 -0.0135584
41.81 0.00220611
41.845 0.00605133
41.88 0.00417728
41.915 0.00217959
41.95 -0.00812372
41.985 -0.00900128
42.02 -0.00979838
42.055 -0.001979
42.09 0.02307
42.125 -0.000732094
42.16 0.0124837
42.195 0.00304144
42.23 -0.0126987
42.265 0.00308931
42.3 0.00768044
42.335 -0.000306061
42.37 0.00391019
42.405 -0.00624554
42.44 -0.00847642
42.475 0.00837075
42.51 0.0115123
42.545 -0.00380232
42.58 0.00290881
42.615 -0.0118192
42.65 0.00211243
42.685 0.00836263
42.72 0.0047012
42.755 0.00173011
42.79 0.0027768
42.825 0.0191252
42.86 -0.000900269
42.895 -0.000226702
42.93 0.00389926
42.965 -0.000347754
43 -0.0117883
43.035 0.00283663
43.07 -0.00968003
43.105 -0.00612482
43.14 0.0036719
43.175 0.00483616
43.21 -6.76751e-05
43.245 -0.00670631
43.28 0.000728602
43.315 0.00535154
43.35 0.00540186
43.385 -0.0104545
43.42 -0.00179436
43.455 0.0109198
43.49 -0.00766496
43.525 -0.00289624
43.56 -0.00465384
43.595 0.0111507
43.63 0.00369135
43.665 -0.0104696
43.7 0.0182884
43.735 0.0059534
43.77 0.000374123
43.805 0.0179988
43.84 0.0315784
43.875 0.0118035
43.91 0.00496972
43.945 0.0334685
43.98 0.00882303
44.015 0.0295682
44.05 0.0273011
44.085 0.031531
44.12 0.0388496
44.155 0.036624
44.19 0.0399495
44.225 0.0426875
44.26 0.0345882
44.295 0.0471887
44.33 0.0405242
44.365 0.0409363
44.4 0.0449738
44.435 0.0297848
44.47 0.0243642
44.505 0.00232557
44.54 0.0181187
44.575 0.0326379
44.61 0.0383481
44.645 0.0374102
44.68 0.0378106
44.715 0.0199853
44.75 0.0434318
44.785 0.0554978
44.82 0.0365209
44.855 0.0788937
44.89 0.110829
44.925 0.157237
44.96 0.22611
44.995 0.368594
45.03 0.544177
45.065 0.673982
45.1 0.799528
45.135 0.837144
45.17 0.816425
45.205 0.760178
45.24 0.616146
45.275 0.494674
45.31 0.362033
45.345 0.230773
45.38 0.158938
45.415 0.129141
45.45 0.0767745
45.485 0.0325469
45.52 0.0143018
45.555 0.055533
45.59 0.0319414
45.625 0.0265254
45.66 0.00539859
45.695 0.00272124
45.73 0.0247273
45.765 0.00565662
45.8 0.0309166
45.835 0.0291372
45.87 0.0394001
45.905 0.0509583
45.94 0.0403748
45.975 0.078497
46.01 0.099673
46.045 0.160943
46.08 0.221193
46.115 0.252626
46.15 0.343476
46.185 0.401796
46.22 0.478645
46.255 0.484107
46.29 0.498148
46.325 0.434428
46.36 0.331877
46.395 0.262384
46.43 0.204687
46.465 0.14267
46.5 0.0960798
46.535 0.0601501
46.57 0.0468821
46.605 0.00497727
46.64 0.0199251
46.675 0.0170897
46.71 0.0103251
46.745 0.00621706
46.78 0.020617
46.815 0.00662897
46.85 -0.00974905
46.885 -0.00160225
46.92 0.0091468
46.955 -0.0125158
46.99 -0.00224544
47.025 0.00986261
47.06 -0.0112434
47.095 -0.00840968
47.13 0.00579078
47.165 0.000372014
47.2 -0.00741089
47.235 -0.00327457
47.27 -0.00826671
47.305 -0.0143783
47.34 -0.0199768
47.375 -0.00239756
47.41 0.00405661
47.445 0.00288432
47.48 -0.00425734
47.515 -0.00713963
47.55 -0.00328548
47.585 -0.000468137
47.62 -0.000449465
47.655 0.00273154
47.69 -0.0106238
47.725 -0.016148
47.76 0.00608157
47.795 0.0103568
47.83 0.00514268
47.865 0.00350976
47.9 0.00307773
47.935 0.0049873
47.97 0.00390126
48.005 -0.00644691
48.04 -0.00114915
48.075 0.012627
48.11 0.00161597
48.145 0.00497508
48.18 -0.00114189
48.215 0.0147034
48.25 0.00948232
48.285 0.0023261
48.32 -0.00199134
48.355 0.00570236
48.39 0.00135872
48.425 0.00339484
48.46 0.0152704
48.495 0.0125285
48.53 0.0250222
48.565 0.0283181
48.6 0.0312477
48.635 0.0583034
48.67 0.0649707
48.705 0.0786901
48.74 0.0881686
48.775 0.104944
48.81 0.105239
48.845 0.124941
48.88 0.122092
48.915 0.0921243
48.95 0.0712085
48.985 0.0592475
49.02 0.0330572
49.055 0.0188829
49.09 -0.000897122
49.125 0.000879176
49.16 -0.00111301
49.195 -0.00857636
49.23 -0.00271498
49.265 -0.0039612
49.3 -0.00703919
49.335 -0.00753768
49.37 -0.00982352
49.405 0.00436051
49.44 -0.0127171
49.475 -0.00174726
49.51 0.00903299
49.545 -0.00333897
49.58 0.00166517
49.615 -0.0136069
49.65 -0.00641009
49.685 -0.00670424
49.72 -0.011618
49.755 -0.00802353
49.79 -0.00881726
49.825 -0.0112126
49.86 -0.00218027
49.895 -0.0176071
49.93 0.000339443
49.965 -0.00434503
50 -0.00999174
50.035 -0.0115855
50.07 -0.00956192
50.105 -0.00684242
50.14 0.000338909
50.175 -0.00249604
50.21 -0.0042301
50.245 -0.0116053
50.28 -0.00830214
50.315 -0.00792508
50.35 -0.00383889
50.385 -0.00355232
50.42 -0.000788963
50.455 -0.0045103
50.49 -0.00215547
50.525 -2.11587e-05
50.56 0.000548851
50.595 -0.00793707
50.63 0.0174142
50.665 -8.19152e-05
50.7 0.0015681
50.735 0.00175895
50.77 0.000385108
50.805 0.0108113
50.84 0.00302781
50.875 -0.00578665
50.91 0.0116055
50.945 0.0141074
50.98 0.00750172
51.015 0.0145899
51.05 0.0075449
51.085 0.00587713
51.12 0.0166327
51.155 0.0101629
51.19 0.0156722
51.225 0.00317321
51.26 -0.00909941
51.295 -0.00339785
51.33 -0.00838048
51.365 0.00177849
51.4 -0.000735479
51.435 -0.00258214
51.47 -0.0104387
51.505 -0.00155873
51.54 0.00704486
51.575 0.00533745
51.61 -0.00870916
51.645 0.00145118
51.68 -0.00750078
51.715 -0.0165535
51.75 -0.00252739
51.785 0.00654747
51.82 -0.00636401
51.855 -0.0106324
51.89 -0.0062775
51.925 -0.00728485
51.96 -0.0129689
51.995 -0.0146547
52.03 -0.00793339
52.065 -0.00356453
52.1 -0.00686262
52.135 -0.00167432
52.17 -0.00126832
52.205 -0.00236152
52.24 -0.00223814
52.275 -0.00152805
52.31 -0.00324927
52.345 -0.0038027
52.38 0.00202226
52.415 -0.00694059
52.45 9.52858e-05
52.485 -0.000760086
52.52 -0.00205264
52.555 0.00713592
52.59 -0.00134849
52.625 -0.00945966
52.66 -0.00108927
52.695 0.0177831
52.73 0.0104666
52.765 0.00110657
52.8 0.0079342
52.835 0.0122093
52.87 0.0174913
52.905 0.0089518
52.94 0.0154805
52.975 0.014811
53.01 0.0212536
53.045 0.0277528
53.08 0.0224673
53.115 0.0163789
53.15 0.0166106
53.185 0.0167491
53.22 0.00540419
53.255 0.010131
53.29 -0.000724557
53.325 -0.00348992
53.36 0.0113987
53.395 0.012303
53.43 -0.00772885
53.465 -0.0126381
53.5 0.0068456
53.535 0.000195239
53.57 -0.00405865
53.605 0.00063793
53.64 -0.00915157
53.675 -0.00731813
53.71 0.00904182
53.745 -0.00522444
53.78 0.00464525
53.815 0.000816
53.85 -0.00566891
53.885 0.00273914
53.92 -0.0141827
53.955 0.00401857
53.99 0.00770221
54.025 0.00190124
54.06 -0.00641856
54.095 -0.00448855
54.13 -0.00235686
54.165 -0.0037675
54.2 -0.00567568
54.235 0.00173202
54.27 0.00467817
54.305 0.00651853
54.34 0.0124501
54.375 0.00635074
54.41 0.0103551
54.445 0.00717853
54.48 0.000588703
54.515 0.00838018
54.55 0.00381747
54.585 -0.00589082
54.62 0.00301159
54.655 0.00651894
54.69 0.00154087
54.725 -0.00276109
54.76 0.00112862
54.795 0.00317289
54.83 0.00930077
54.865 -0.00885626
54.9 -0.00214879
54.935 0.0151861
54.97 -0.0166766
55.005 0.00443004
55.04 -0.00339888
55.075 -0.00158277
55.11 -0.00179046
55.145 -0.00537217
55.18 -0.0104416
55.215 -0.00853014
55.25 -0.00792763
55.285 0.000699994
55.32 -0.00274749
55.355 0.00612621
55.39 -0.00189488
55.425 0.00670105
55.46 -0.0178637
55.495 -0.00782389
55.53 -0.000525986
55.565 0.00614316
55.6 0.00782992
55.635 0.0115648
55.67 0.0017388
55.705 0.00593834
55.74 0.000951696
55.775 0.0110528
55.81 0.0123082
55.845 0.00638719
55.88 0.00924938
55.915 0.00528122
55.95 0.0183169
55.985 0.0309407
56.02 0.0193834
56.055 0.0123641
56.09 0.0146661
56.125 0.017013
56.16 0.0165109
56.195 0.0232759
56.23 0.0252944
56.265 0.0161594
56.3 0.00311797
56.335 0.0196977
56.37 0.0075991
56.405 0.00743674
56.44 0.00253233
56.475 0.00767634
56.51 -0.00168728
56.545 0.0125422
56.58 -0.000946119
56.615 -0.00432295
56.65 -0.00293201
56.685 0.00491877
56.72 0.00539834
56.755 -0.00417154
56.79 -0.00796571
56.825 0.00827248
56.86 0.00286389
56.895 0.0159048
56.93 0.004195
56.965 0.010995
57 -0.0170458
57.035 -0.010131
57.07 -0.0103301
57.105 0.00329541
57.14 0.00182269
57.175 -0.00480531
57.21 0.00968149
57.245 -0.00320861
57.28 0.00345116
57.315 -0.0109092
57.35 -0.00208096
57.385 -0.00352257
57.42 0.00210281
57.455 -0.0100284
57.49 -0.00333026
57.525 -0.00335632
57.56 -0.0114407
57.595 -0.00603607
57.63 0.00849671
57.665 0.00513868
57.7 0.000230285
57.735 0.0013218
57.77 0.00560534
57.805 -0.00441102
57.84 0.00276497
57.875 0.012702
57.91 0.000951182
57.945 0.00155162
57.98 0.0108537
58.015 0.0222145
58.05 0.0147344
58.085 0.00711069
58.12 0.0133295
58.155 0.01533
58.19 0.00451306
58.225 0.0126628
58.26 0.011115
58.295 0.0120976
58.33 0.00761417
58.365 0.00247631
58.4 0.000988085
58.435 -0.00264868
58.47 -0.00147177
58.505 0.00992421
58.54 -0.00595896
58.575 0.00244959
58.61 0.00575453
58.645 0.0106323
58.68 0.00781764
58.715 0.00728727
58.75 0.0163068
58.785 0.00866619
58.82 0.0235072
58.855 0.0194036
58.89 0.0246973
58.925 0.0101881
58.96 0.00557774
58.995 0.0388333
59.03 0.0299042
59.065 0.0159817
59.1 0.0467555
59.135 0.0127599
59.17 0.0271092
59.205 0.00887322
59.24 0.0091868
59.275 0.00771917
59.31 0.00563436
59.345 0.00669638
59.38 0.00346139
59.415 0.0182747
59.45 -0.000462141
59.485 0.00287973
59.52 0.00327806
59.555 -0.0074662
59.59 9.13451e-05
59.625 0.00450553
59.66 0.0229193
59.695 0.0124089
59.73 0.00934028
59.765 0.00531452
59.8 -0.00384024
59.835 0.00863589
59.87 0.00906052
59.905 -0.00243793
59.94 0.00539153
59.975 0.015109
60.01 0.0059971
60.045 0.0148553
60.08 0.0110526
60.115 0.0104617
60.15 0.0012762
60.185 0.0162611
60.22 0.0250883
60.255 0.00234378
60.29 0.0137751
60.325 0.0183021
60.36 0.0120858
60.395 0.023923
60.43 1.52936e-05
60.465 -0.0117723
60.5 0.00527317
60.535 0.0132594
60.57 -0.00804002
60.605 0.00156381
60.64 -0.00507777
60.675 0.00399279
60.71 -0.00263893
60.745 0.0172424
60.78 -0.0100148
60.815 0.00276628
60.85 -0.01003
60.885 0.00407646
60.92 -0.00937083
60.955 0.0108802
60.99 0.0114834
61.025 0.00731446
61.06 0.00747736
61.095 0.00463863
61.13 0.0200657
61.165 0.0311705
61.2 0.0468464
61.235 0.0537139
61.27 0.0912491
61.305 0.119032
61.34 0.201081
61.375 0.267529
61.41 0.391453
61.445 0.485762
61.48 0.561359
61.515 0.610806
61.55 0.670522
61.585 0.61117
61.62 0.600037
61.655 0.566717
61.69 0.507316
61.725 0.445515
61.76 0.401669
61.795 0.329635
61.83 0.26877
61.865 0.219905
61.9 0.152682
61.935 0.107482
61.97 0.0769182
62.005 0.0434253
62.04 0.0245799
62.075 0.00878274
62.11 0.00741808
62.145 0.00256309
62.18 0.00278539
62.215 -0.00284957
62.25 0.0012617
62.285 0.00998886
62.32 -0.00299187
62.355 -0.0144386
62.39 -0.00359869
62.425 0.00968922
62.46 0.00382786
62.495 7.48849e-05
62.53 0.0151075
62.565 0.00260188
62.6 0.00381076
62.635 0.00885069
62.67 0.0182811
62.705 0.0046567
62.74 0.00315932
62.775 0.0022555
62.81 0.00156291
62.845 -0.0157095
62.88 0.0145593
62.915 -0.00104103
62.95 0.0112488
62.985 0.0056109
63.02 0.000148714
63.055 0.0157141
63.09 -0.00536862
63.125 0.00196336
63.16 0.00855232
63.195 0.0045956
63.23 -0.00776917
63.265 -0.0155271
63.3 -0.00522923
63.335 -0.000550806
63.37 0.0111115
63.405 0.00170027
63.44 0.00739474
63.475 -0.00724289
63.51 0.00960405
63.545 -0.00686032
63.58 0.0064937
63.615 0.00606743
63.65 0.00891293
63.685 0.0115166
63.72 0.0111106
63.755 -0.0110711
63.79 0.00241822
63.825 0.00390447
63.86 -0.00776518
63.895 -0.00551625
63.93 0.0140232
63.965 0.00460814
64 -0.00996341
64.035 0.0053164
64.07 0.00605561
64.105 -0.00906927
64.14 -0.00490863
64.175 0.00469996
64.21 0.0176256
64.245 -0.00840381
64.28 0.00460842
64.315 -0.00210565
64.35 -0.0127899
64.385 -0.00486052
64.42 0.00755701
64.455 0.000252249
64.49 -0.00975631
64.525 -0.00475445
64.56 0.00176739
64.595 0.00339758
64.63 0.00144606
64.665 0.00112059
64.7 -0.00826918
64.735 -0.00897763
64.77 -0.00375126
64.805 -0.00655051
64.84 -0.00554648
64.875 -0.0128838
64.91 0.00342108
64.945 -0.012559
64.98 0.00414129
65.015 0.00283598
65.05 -0.00135694
65.085 -0.00094993
65.12 -0.00297164
65.155 -0.00618556
65.19 0.00652297
65.225 -0.00429264
65.26 -0.00399001
65.295 -0.00829713
65.33 0.00786936
65.365 0.00208403
65.4 -0.00837272
65.435 0.00200089
65.47 0.00966539
65.505 0.00360549
65.54 -0.00214556
65.575 0.00978312
65.61 -0.00513804
65.645 0.0119766
65.68 -0.00567842
65.715 0.00775527
65.75 -0.00112932
65.785 -0.00185758
65.82 0.00450861
65.855 0.00205115
65.89 0.00919665
65.925 -0.00461215
65.96 -0.0143133
65.995 -0.000214615
66.03 -0.00793739
66.065 0.00624906
66.1 0.0136721
66.135 0.00762168
66.17 0.00137849
66.205 -0.00246787
66.24 0.00217224
66.275 -0.00530954
66.31 -0.0102235
66.345 -0.000255142
66.38 0.00756673
66.415 0.00625395
66.45 0.0048329
66.485 0.00294217
66.52 0.00410134
66.555 0.0137706
66.59 0.0169461
66.625 0.000142074
66.66 0.00968433
66.695 0.0105046
66.73 -0.0218145
66.745 -0.0220921