File: data/xrd/xy/2019-06-10T21_14_00.866379+00_00_LBL_B6.xy
'Id: "" Comment: "Integrate frame 06132019_dimethyl_ipropyl_02_002.gfrmwith cursor Wedge Cursor #2" Operator: "UC Berkeley" Anode: "Co" Scantype: "TwoTheta" TimePerStep: "480"
17.29 -0.0299317
17.33 0.0276251
17.37 -0.0214197
17.41 -0.00840141
17.45 0.0986504
17.49 0.0274707
17.53 0.050589
17.57 0.0435107
17.61 0.0193283
17.65 0.10086
17.69 0.0178022
17.73 0.0308079
17.77 0.0800044
17.81 0.00202341
17.85 0.0318435
17.89 0.0629438
17.93 0.077064
17.97 0.0520352
18.01 -0.0163599
18.05 0.069543
18.09 -0.00125512
18.13 0.0782033
18.17 0.0466534
18.21 0.0621726
18.25 0.0363305
18.29 0.0360362
18.33 0.0314186
18.37 0.0734836
18.41 0.0731141
18.45 0.0560505
18.49 0.128473
18.53 0.157551
18.57 0.0662966
18.61 0.0155983
18.65 0.0564042
18.69 0.0537556
18.73 0.0122702
18.77 0.0108692
18.81 0.0299932
18.85 0.0798214
18.89 0.0373317
18.93 0.0535806
18.97 -0.00556963
19.01 0.0513685
19.05 0.0473054
19.09 0.0701993
19.13 0.0533942
19.17 0.0341883
19.21 0.0221728
19.25 0.0115242
19.29 0.0389493
19.33 0.0318155
19.37 -0.0141551
19.41 0.0293341
19.45 0.0214317
19.49 0.00891051
19.53 0.0457826
19.57 0.0554069
19.61 -0.00976406
19.65 0.0630752
19.69 -0.0075996
19.73 -0.00789349
19.77 0.0460897
19.81 0.0409245
19.85 0.0630641
19.89 0.0528871
19.93 -0.027257
19.97 0.0199709
20.01 0.0218445
20.05 0.0373616
20.09 0.0332421
20.13 0.0103358
20.17 0.0554479
20.21 -0.0189912
20.25 0.0143202
20.29 0.074835
20.33 0.0604119
20.37 0.041375
20.41 0.0372106
20.45 0.0902203
20.49 0.0688436
20.53 0.0783917
20.57 0.0188235
20.61 0.0408164
20.65 0.0469625
20.69 0.0421353
20.73 0.0403798
20.77 0.0337384
20.81 -0.00413291
20.85 0.110149
20.89 0.0918911
20.93 0.100332
20.97 0.0236441
21.01 0.0314527
21.05 0.0975116
21.09 0.0795677
21.13 0.0780681
21.17 0.100468
21.21 0.0935681
21.25 0.020258
21.29 0.0861513
21.33 0.0453355
21.37 0.0599209
21.41 0.07098
21.45 -0.00229838
21.49 0.0715902
21.53 -0.0290837
21.57 0.0281227
21.61 0.0674837
21.65 0.0895857
21.69 0.0069405
21.73 0.109507
21.77 0.0298761
21.81 0.0526158
21.85 0.0130574
21.89 0.0469731
21.93 -0.0135577
21.97 0.0678919
22.01 0.0165792
22.05 0.0141006
22.09 0.0185218
22.13 0.0194776
22.17 0.00359169
22.21 0.023831
22.25 0.0108393
22.29 0.053872
22.33 0.0256421
22.37 0.0933238
22.41 0.0212702
22.45 -0.00651655
22.49 0.03028
22.53 0.00402507
22.57 0.0227516
22.61 0.0380236
22.65 0.0250654
22.69 0.0488039
22.73 0.0704415
22.77 0.00576832
22.81 0.0170607
22.85 -0.027969
22.89 0.0424549
22.93 0.0644281
22.97 0.00604206
23.01 -0.009684
23.05 0.0525885
23.09 0.0498465
23.13 0.097565
23.17 0.00556777
23.21 0.0713234
23.25 0.0423017
23.29 0.0368208
23.33 0.0802368
23.37 0.1777
23.41 0.26797
23.45 0.385092
23.49 0.601563
23.53 0.603194
23.57 0.69425
23.61 0.579204
23.65 0.385995
23.69 0.241573
23.73 0.0887618
23.77 0.126531
23.81 0.0798143
23.85 0.0980458
23.89 -0.000200167
23.93 0.046709
23.97 0.0374761
24.01 0.0554119
24.05 0.0478871
24.09 0.033727
24.13 0.0388014
24.17 0.00691065
24.21 0.0563763
24.25 0.00980025
24.29 0.0770276
24.33 0.0493073
24.37 -0.0128324
24.41 0.0680619
24.45 -0.00219401
24.49 0.0320166
24.53 0.0161595
24.57 0.0129278
24.61 0.0269537
24.65 0.0466385
24.69 0.0235638
24.73 0.0446989
24.77 0.0313406
24.81 -0.0168176
24.85 0.0516147
24.89 0.0045342
24.93 0.0275864
24.97 0.0140581
25.01 0.0253251
25.05 0.0254736
25.09 0.0438943
25.13 0.09543
25.17 0.116823
25.21 0.118519
25.25 0.0684816
25.29 0.0792928
25.33 0.0782904
25.37 0.031448
25.41 0.0556198
25.45 -0.0157658
25.49 0.0306823
25.53 0.032475
25.57 0.0831637
25.61 0.0197527
25.65 0.026799
25.69 -0.00158837
25.73 -0.0108785
25.77 0.0521505
25.81 0.0637687
25.85 0.0623242
25.89 0.064321
25.93 0.0374523
25.97 0.0414733
26.01 0.0235705
26.05 0.0426104
26.09 0.0425399
26.13 0.0159707
26.17 -0.0224413
26.21 0.0478087
26.25 0.00448106
26.29 0.0357778
26.33 0.011808
26.37 0.046972
26.41 0.0317912
26.45 -0.0279031
26.49 0.064591
26.53 0.0907051
26.57 0.0386121
26.61 0.0598317
26.65 0.0319649
26.69 0.0613497
26.73 0.0571493
26.77 0.0845275
26.81 0.0206976
26.85 0.0517898
26.89 0.0239703
26.93 0.0437208
26.97 0.0687573
27.01 0.029111
27.05 0.0197008
27.09 0.0438673
27.13 0.0336206
27.17 0.0272227
27.21 0.0442847
27.25 0.088834
27.29 0.072756
27.33 -0.00205768
27.37 0.0125627
27.41 0.0333097
27.45 0.0253814
27.49 0.0587733
27.53 0.0320726
27.57 0.0453548
27.61 0.0480462
27.65 0.024952
27.69 0.0578724
27.73 0.0617552
27.77 0.041485
27.81 0.0280019
27.85 0.0547945
27.89 -0.0096403
27.93 0.0335942
27.97 0.0568555
28.01 0.0781
28.05 -0.0150628
28.09 0.0209308
28.13 0.0588785
28.17 0.0608445
28.21 0.021557
28.25 0.0216091
28.29 -0.000530547
28.33 0.0584309
28.37 0.0208995
28.41 0.00851966
28.45 0.00402068
28.49 0.0516914
28.53 0.0122249
28.57 0.0447848
28.61 0.0993284
28.65 0.0951795
28.69 0.13144
28.73 0.146988
28.77 0.150293
28.81 0.108077
28.85 0.0472559
28.89 0.0569913
28.93 0.0185502
28.97 0.0558293
29.01 0.0383049
29.05 0.0409584
29.09 0.017277
29.13 -0.0132966
29.17 0.0212393
29.21 0.084754
29.25 0.033938
29.29 0.0610713
29.33 0.010236
29.37 0.0171631
29.41 0.0601817
29.45 0.0259557
29.49 0.00580007
29.53 -0.011097
29.57 0.014802
29.61 0.0447548
29.65 0.0510948
29.69 0.0246771
29.73 0.057512
29.77 0.104301
29.81 0.0688072
29.85 0.168165
29.89 0.251707
29.93 0.405811
29.97 0.766527
30.01 1.27844
30.05 1.90369
30.09 2.41831
30.13 2.4863
30.17 2.22331
30.21 1.5064
30.25 0.915028
30.29 0.465357
30.33 0.258018
30.37 0.134531
30.41 0.0964201
30.45 0.0964823
30.49 0.0548264
30.53 0.053655
30.57 0.0449414
30.61 0.0539653
30.65 0.0349319
30.69 0.0209904
30.73 0.0164244
30.77 0.0355469
30.81 0.0200976
30.85 0.0212444
30.89 0.0146657
30.93 0.0467572
30.97 0.0336514
31.01 -0.00796691
31.05 -0.00785788
31.09 0.016243
31.13 0.0207795
31.17 0.0108561
31.21 0.0192688
31.25 0.0250238
31.29 0.0265593
31.33 0.0258911
31.37 0.0336127
31.41 0.0400646
31.45 -0.0179698
31.49 0.0253235
31.53 0.0323043
31.57 0.0106738
31.61 0.0458604
31.65 0.0146682
31.69 0.0214162
31.73 -0.0260401
31.77 0.00607873
31.81 0.0192421
31.85 -0.000246593
31.89 0.0407913
31.93 0.0138063
31.97 0.010041
32.01 0.0233375
32.05 0.00452359
32.09 0.0129331
32.13 0.0245023
32.17 0.0105403
32.21 0.0466049
32.25 0.00780072
32.29 0.0459829
32.33 0.0171792
32.37 0.0420069
32.41 0.0534959
32.45 0.0294447
32.49 0.0565941
32.53 0.00327694
32.57 0.00529431
32.61 0.0259425
32.65 0.0296195
32.69 0.0253341
32.73 0.0199509
32.77 0.027236
32.81 -0.0254776
32.85 0.00568871
32.89 0.010431
32.93 0.00542512
32.97 0.0440088
33.01 0.0209357
33.05 0.0274575
33.09 0.0239609
33.13 0.0165771
33.17 0.0245372
33.21 0.00977327
33.25 0.0193743
33.29 0.0419543
33.33 0.0217614
33.37 0.0299441
33.41 -0.0252059
33.45 -0.00646153
33.49 0.0226284
33.53 0.018704
33.57 0.0228595
33.61 0.0150209
33.65 -0.0131192
33.69 0.00391954
33.73 0.00593903
33.77 0.0165935
33.81 0.0465675
33.85 0.0199016
33.89 0.0152301
33.93 0.0464461
33.97 0.00964102
34.01 0.0229555
34.05 0.0248588
34.09 0.008369
34.13 -0.00182225
34.17 0.0369893
34.21 0.0416723
34.25 0.00154808
34.29 -0.00108408
34.33 0.0229293
34.37 0.0302053
34.41 0.0411848
34.45 0.0330165
34.49 0.0636456
34.53 0.0643151
34.57 0.0776233
34.61 0.154577
34.65 0.282237
34.69 0.405883
34.73 0.574949
34.77 0.769551
34.81 0.784333
34.85 0.642722
34.89 0.444383
34.93 0.268728
34.97 0.189274
35.01 0.115813
35.05 0.0647442
35.09 0.0445386
35.13 0.0130171
35.17 0.00915277
35.21 0.0346907
35.25 0.0320563
35.29 -0.00295224
35.33 -0.0151389
35.37 -0.0141284
35.41 0.0149621
35.45 -0.00730721
35.49 0.00507367
35.53 0.0308868
35.57 0.0478275
35.61 0.0555068
35.65 0.0260155
35.69 0.0520714
35.73 0.0157108
35.77 0.0386405
35.81 0.0500729
35.85 0.0633074
35.89 0.0745902
35.93 0.095696
35.97 0.15614
36.01 0.183014
36.05 0.318491
36.09 0.4118
36.13 0.647152
36.17 1.09392
36.21 1.75154
36.25 2.68792
36.29 3.4159
36.33 3.82345
36.37 3.7352
36.41 3.18964
36.45 2.25136
36.49 1.4803
36.53 0.869929
36.57 0.53321
36.61 0.299085
36.65 0.19007
36.69 0.155498
36.73 0.107022
36.77 0.0938591
36.81 0.0752397
36.85 0.0550142
36.89 0.0601071
36.93 0.0248372
36.97 0.0384666
37.01 0.039278
37.05 0.0431138
37.09 0.0411719
37.13 0.0486616
37.17 0.0654936
37.21 0.0794088
37.25 0.119443
37.29 0.184455
37.33 0.257799
37.37 0.42892
37.41 0.566932
37.45 0.699245
37.49 0.747996
37.53 0.705995
37.57 0.594559
37.61 0.41562
37.65 0.32456
37.69 0.160126
37.73 0.128891
37.77 0.0603239
37.81 0.0488439
37.85 0.0169833
37.89 0.0292728
37.93 -0.00726001
37.97 0.00129865
38.01 0.00630427
38.05 -0.000339826
38.09 0.00866665
38.13 -0.0068459
38.17 0.0363012
38.21 0.0138732
38.25 -0.0035857
38.29 -0.00902509
38.33 0.026172
38.37 0.0588336
38.41 0.0721931
38.45 0.115368
38.49 0.154465
38.53 0.255699
38.57 0.267597
38.61 0.247121
38.65 0.199027
38.69 0.166926
38.73 0.12841
38.77 0.0755932
38.81 0.0339305
38.85 0.026682
38.89 0.00921279
38.93 0.0266846
38.97 -0.00440186
39.01 -0.0076532
39.05 -0.00262724
39.09 0.00434762
39.13 0.00732864
39.17 -0.000279512
39.21 0.014527
39.25 -0.0159743
39.29 -0.00252393
39.33 -0.000632289
39.37 -0.00195343
39.41 0.000391914
39.45 -0.0102524
39.49 0.00266724
39.53 -0.00202299
39.57 -0.0133798
39.61 0.0249446
39.65 0.0126238
39.69 0.00527094
39.73 -0.0119509
39.77 0.0029248
39.81 0.000680631
39.85 0.031435
39.89 0.00990176
39.93 0.00953385
39.97 0.0210381
40.01 0.0274645
40.05 -0.0121925
40.09 0.0479999
40.13 0.00954951
40.17 -0.00131197
40.21 0.00842491
40.25 0.0467118
40.29 -0.022913
40.33 0.0266979
40.37 0.00854196
40.41 0.0209245
40.45 0.0324663
40.49 -0.00905274
40.53 0.0338127
40.57 0.0289856
40.61 0.0254764
40.65 0.038038
40.69 0.0155954
40.73 0.0365734
40.77 0.0420659
40.81 0.0201641
40.85 0.0272366
40.89 0.0461426
40.93 0.0511333
40.97 0.0131081
41.01 0.0174488
41.05 0.0342487
41.09 0.0490122
41.13 0.0392875
41.17 0.0657913
41.21 0.129681
41.25 0.171212
41.29 0.271422
41.33 0.405902
41.37 0.486104
41.41 0.524864
41.45 0.507772
41.49 0.501112
41.53 0.409309
41.57 0.313373
41.61 0.216345
41.65 0.120907
41.69 0.0788126
41.73 0.0789818
41.77 0.0379577
41.81 0.0477804
41.85 0.0187185
41.89 -0.00449416
41.93 0.00811337
41.97 0.0118709
42.01 0.0180904
42.05 0.0237744
42.09 0.0156323
42.13 0.0144042
42.17 0.00469495
42.21 0.0176712
42.25 0.0155611
42.29 0.0114158
42.33 0.00463408
42.37 0.0308068
42.41 0.0200731
42.45 0.0145362
42.49 0.0163398
42.53 0.0167574
42.57 0.000744557
42.61 0.0195374
42.65 -0.0178909
42.69 0.044233
42.73 -0.0159704
42.77 -0.0193557
42.81 0.0118056
42.85 0.0334433
42.89 0.0400941
42.93 0.0102329
42.97 0.0421511
43.01 0.00607705
43.05 0.0122178
43.09 0.00854228
43.13 0.0382591
43.17 0.00244449
43.21 0.0122402
43.25 0.00700115
43.29 -0.0026322
43.33 0.0154193
43.37 0.0281127
43.41 0.027946
43.45 -0.00451886
43.49 0.0489777
43.53 0.0205004
43.57 0.00479159
43.61 0.0252517
43.65 0.0546912
43.69 0.0416478
43.73 -0.00745857
43.77 0.00424232
43.81 -0.0188477
43.85 0.0268005
43.89 0.0140415
43.93 0.0217227
43.97 0.0186602
44.01 0.0240722
44.05 0.0108865
44.09 0.0255236
44.13 0.00773109
44.17 0.0229536
44.21 0.0251884
44.25 0.00039963
44.29 0.0138107
44.33 0.00788389
44.37 0.0330851
44.41 0.0341376
44.45 0.0444492
44.49 0.0289991
44.53 0.0675718
44.57 0.0741812
44.61 0.120836
44.65 0.135547
44.69 0.170563
44.73 0.196084
44.77 0.208265
44.81 0.185812
44.85 0.147251
44.89 0.149535
44.93 0.111824
44.97 0.0975437
45.01 0.0517258
45.05 0.0224799
45.09 0.0601439
45.13 -0.00379591
45.17 0.00388104
45.21 0.0229413
45.25 0.0257706
45.29 -0.00345133
45.33 0.0117472
45.37 0.00189986
45.41 0.00819513
45.45 0.0278845
45.49 -0.000893608
45.53 0.00252264
45.57 0.000546769
45.61 0.0207755
45.65 0.000554643
45.69 0.028618
45.73 -0.00688221
45.77 0.0227209
45.81 0.010956
45.85 -0.00261092
45.89 0.0225967
45.93 0.0296306
45.97 0.0111066
46.01 0.00562081
46.05 0.00280134
46.09 -0.00209028
46.13 0.0157579
46.17 0.00283809
46.21 0.0098222
46.25 0.00397744
46.29 0.013357
46.33 0.0095309
46.37 0.0345813
46.41 -0.00407706
46.45 0.024067
46.49 -0.00617604
46.53 0.0180654
46.57 -0.013868
46.61 0.0149675
46.65 0.0180758
46.69 -0.00794003
46.73 0.0106429
46.77 0.00650425
46.81 0.00191875
46.85 0.00991747
46.89 0.0159046
46.93 0.0484397
46.97 0.00257963
47.01 0.0240859
47.05 0.00739181
47.09 0.0142619
47.13 0.0199852
47.17 0.010909
47.21 0.0297373
47.25 0.00178981
47.29 0.0255937
47.33 0.0246171
47.37 0.0379165
47.41 0.0746053
47.45 0.0804935
47.49 0.137332
47.53 0.123124
47.57 0.164776
47.61 0.204387
47.65 0.212302
47.69 0.240715
47.73 0.249878
47.77 0.25029
47.81 0.254612
47.85 0.300377
47.89 0.360028
47.93 0.440901
47.97 0.625963
48.01 0.910396
48.05 1.35319
48.09 1.83746
48.13 2.2807
48.17 2.69924
48.21 2.98383
48.25 3.02947
48.29 2.83805
48.33 2.38203
48.37 1.9037
48.41 1.39679
48.45 0.974125
48.49 0.64886
48.53 0.408964
48.57 0.275237
48.61 0.189168
48.65 0.14303
48.69 0.12302
48.73 0.0898962
48.77 0.0976352
48.81 0.085177
48.85 0.059875
48.89 0.0774196
48.93 0.10889
48.97 0.158413
49.01 0.176462
49.05 0.170928
49.09 0.190424
49.13 0.22092
49.17 0.192118
49.21 0.182574
49.25 0.174259
49.29 0.115384
49.33 0.10104
49.37 0.0822011
49.41 0.0616979
49.45 0.0474242
49.49 0.0379005
49.53 0.0321012
49.57 0.0175249
49.61 -0.00161733
49.65 0.00580968
49.69 -0.00522331
49.73 0.0154237
49.77 0.0334565
49.81 0.0343179
49.85 0.0434284
49.89 0.0874103
49.93 0.119183
49.97 0.158393
50.01 0.218879
50.05 0.335238
50.09 0.526805
50.13 0.67918
50.17 0.860164
50.21 1.03967
50.25 1.15742
50.29 1.34319
50.33 1.37819
50.37 1.29011
50.41 1.20634
50.45 1.01418
50.49 0.838517
50.53 0.597184
50.57 0.38788
50.61 0.286327
50.65 0.186769
50.69 0.105779
50.73 0.0633496
50.77 0.0461167
50.81 0.019925
50.85 0.0305216
50.89 0.0164838
50.93 -0.00100042
50.97 -0.0086749
51.01 0.00711414
51.05 0.00325359
51.09 0.00601379
51.13 0.00680108
51.17 0.00537759
51.21 0.00171641
51.25 0.00367062
51.29 0.00484843
51.33 -0.00673942
51.37 -0.0136034
51.41 0.00276659
51.45 0.00546553
51.49 0.00661365
51.53 -0.0141575
51.57 -0.000634919
51.61 0.0232967
51.65 0.0114503
51.69 0.0210969
51.73 0.0389137
51.77 0.0711621
51.81 0.09989
51.85 0.14575
51.89 0.175927
51.93 0.202544
51.97 0.21279
52.01 0.230975
52.05 0.239643
52.09 0.219658
52.13 0.183316
52.17 0.177569
52.21 0.16382
52.25 0.0852056
52.29 0.0781369
52.33 0.0643266
52.37 0.0535399
52.41 0.00280503
52.45 0.0216386
52.49 0.0115461
52.53 0.00627745
52.57 -0.00681064
52.61 9.00727e-05
52.65 -0.000718063
52.69 0.00786236
52.73 0.00221088
52.77 -0.00475093
52.81 -0.0160951
52.85 -0.000792308
52.89 0.000651987
52.93 0.015846
52.97 -0.00558336
53.01 0.00251853
53.05 -0.00399076
53.09 -0.000670983
53.13 -0.00338275
53.17 0.0027426
53.21 -0.002658
53.25 0.0111812
53.29 -0.00049665
53.33 0.0236435
53.37 -0.00486057
53.41 0.00538153
53.45 0.00625138
53.49 -0.000629837
53.53 0.00809205
53.57 0.0149125
53.61 0.059089
53.65 0.0451916
53.69 0.0609776
53.73 0.0671055
53.77 0.0741245
53.81 0.07034
53.85 0.0865978
53.89 0.0608568
53.93 0.0465534
53.97 0.0569792
54.01 0.034743
54.05 0.0293557
54.09 0.0144695
54.13 0.031822
54.17 0.0242565
54.21 0.00735092
54.25 0.00331936
54.29 0.0253178
54.33 0.0074354
54.37 -0.00161395
54.41 0.00692511
54.45 0.0168016
54.49 0.0135604
54.53 0.00925044
54.57 -0.00434396
54.61 -0.00645693
54.65 -0.00637633
54.69 0.000701415
54.73 -0.00517016
54.77 -0.0160078
54.81 -0.00103325
54.85 -0.00777427
54.89 0.00125231
54.93 0.0229645
54.97 0.00522728
55.01 0.0340783
55.05 0.0408482
55.09 0.00965197
55.13 0.0304956
55.17 0.0319782
55.21 0.0254035
55.25 0.00879782
55.29 0.0171814
55.33 0.0317935
55.37 0.00731007
55.41 -0.000215319
55.45 -0.008598
55.49 -0.00612706
55.53 -0.000503297
55.57 -0.00372043
55.61 -0.00183295
55.65 0.00507614
55.69 0.0094497
55.73 -0.00756884
55.77 0.014179
55.81 -0.00169895
55.85 0.00849344
55.89 -0.0184985
55.93 0.00540135
55.97 0.0102614
56.01 0.00482907
56.05 0.0177621
56.09 0.00839621
56.13 0.028424
56.17 0.0118831
56.21 0.0229997
56.25 0.0058499
56.29 0.0186295
56.33 0.00707251
56.37 0.0346807
56.41 0.000930859
56.45 0.014342
56.49 0.0110895
56.53 0.00607473
56.57 0.0158448
56.61 0.0222717
56.65 -0.0137997
56.69 0.00523581
56.73 -0.00926836
56.77 0.00313152
56.81 0.0244579
56.85 0.0462748
56.89 0.0306833
56.93 0.0370225
56.97 0.0713974
57.01 0.0664548
57.05 0.0844177
57.09 0.0491102
57.13 0.0746088
57.17 0.0726631
57.21 0.0657094
57.25 0.06821
57.29 0.0628915
57.33 0.0381614
57.37 0.0803907
57.41 0.0564085
57.45 0.0686386
57.49 0.0798594
57.53 0.0918011
57.57 0.122853
57.61 0.153214
57.65 0.225279
57.69 0.320718
57.73 0.385222
57.77 0.51681
57.81 0.581081
57.85 0.666152
57.89 0.675907
57.93 0.636907
57.97 0.628014
58.01 0.586827
58.05 0.477754
58.09 0.43862
58.13 0.337311
58.17 0.263604
58.21 0.206119
58.25 0.163445
58.29 0.0935211
58.33 0.069325
58.37 0.053601
58.41 0.0347639
58.45 0.0207399
58.49 0.0265628
58.53 0.00894219
58.57 0.021069
58.61 0.00425086
58.65 0.00406684
58.69 0.0213834
58.73 0.0228482
58.77 0.000703101
58.81 -0.00963159
58.85 0.0333398
58.89 -0.000288159
58.93 0.0182823
58.97 -5.35869e-06
59.01 0.0156483
59.05 0.00653276
59.09 0.0288592
59.13 0.0061974
59.17 -0.000547082
59.21 0.000278824
59.25 0.00615287
59.29 0.0024089
59.33 0.000503319
59.37 0.0285331
59.41 0.0100038
59.45 -0.00272079
59.49 -0.00524149
59.53 0.000298598
59.57 0.000359537
59.61 0.0108185
59.65 0.0164483
59.69 0.000589103
59.73 -0.000588453
59.77 0.00734861
59.81 0.00487028
59.85 0.00636499
59.89 0.0267481
59.93 0.00499129
59.97 -0.00949649
60.01 0.00972486
60.05 0.0106808
60.09 0.00316092
60.13 0.0300121
60.17 -0.0123842
60.21 0.0051344
60.25 0.0167628
60.29 0.00290417
60.33 0.0592838
60.37 0.0345627
60.41 0.039123
60.45 0.0110741
60.49 0.00279249
60.53 0.0330233
60.57 0.0263494
60.61 0.0354
60.65 -0.0149821
60.69 0.0373663
60.73 0.0101895
60.77 0.0180618
60.81 0.00524091
60.85 -0.000200073
60.89 0.00666817
60.93 0.0012152
60.97 0.0369217
61.01 0.0198175
61.05 0.0361314
61.09 0.023509
61.13 0.0109503
61.17 0.0278982
61.21 0.0259336
61.25 0.025721
61.29 0.0159227
61.33 0.02095
61.37 0.0233397
61.41 0.0325877
61.45 0.0392466
61.49 0.0542925
61.53 0.0779444
61.57 0.120806
61.61 0.152008
61.65 0.164846
61.69 0.214861
61.73 0.250399
61.77 0.287355
61.81 0.3276
61.85 0.326693
61.89 0.300882
61.93 0.301173
61.97 0.3157
62.01 0.267361
62.05 0.229099
62.09 0.201511
62.13 0.163009
62.17 0.137832
62.21 0.111168
62.25 0.10728
62.29 0.0742242
62.33 0.103433
62.37 0.118721
62.41 0.15147
62.45 0.184368
62.49 0.174065
62.53 0.163463
62.57 0.189776
62.61 0.194581
62.65 0.197685
62.69 0.223409
62.73 0.217452
62.77 0.213739
62.81 0.180891
62.85 0.107691
62.89 0.0968103
62.93 0.0848037
62.97 0.0807692
63.01 0.0575735
63.05 0.038357
63.09 0.0302373
63.13 0.0338595
63.17 0.0146227
63.21 0.0142904
63.25 0.0263631
63.29 0.0139579
63.33 0.0258464
63.37 0.0260095
63.41 0.0440891
63.45 0.0273991
63.49 0.00894872
63.53 0.0174267
63.57 0.0180826
63.61 0.0424479
63.65 0.00910217
63.69 0.0160498
63.73 -0.00254164
63.77 -0.00641394
63.81 0.0148818
63.85 -0.0127802
63.89 0.0340182
63.93 0.0203253
63.97 0.00925256
64.01 0.0283173
64.05 -0.000959233
64.09 0.0064401
64.13 0.0239589
64.17 0.0157005
64.21 0.0168256
64.25 0.00839542
64.29 -0.0145227
64.33 0.0325011
64.37 -0.0017509
64.41 0.0120748
64.45 0.0131922
64.49 0.0024754
64.53 -0.0131619
64.57 0.0402412
64.61 0.0320289
64.65 0.0527835
64.69 0.029999
64.73 0.0496396
64.77 0.0478689
64.81 0.0661507
64.85 0.0296739
64.89 0.0642091
64.93 0.0718103
64.97 0.0723448
65.01 0.0853251
65.05 0.0886186
65.09 0.0592926
65.13 0.0768685
65.17 0.0594743
65.21 0.0831122
65.25 0.0631726
65.29 0.0636186
65.33 0.0490764
65.37 0.0447422
65.41 0.0552008
65.45 0.0499609
65.49 0.0419759
65.53 0.0438374
65.57 0.0589597
65.61 0.0335452
65.65 0.0149319
65.69 0.0192778
65.73 0.00208957
65.77 0.0245009
65.81 0.0243632
65.85 0.0125678
65.89 0.0131894
65.93 0.0234788
65.97 -0.00313418
66.01 0.00146292
66.05 0.0181737
66.09 0.0110732
66.13 0.0066453
66.17 0.024138
66.21 -0.0112965
66.25 0.014166
66.29 0.0170736
66.33 0.0194493
66.37 0.00771018
66.41 0.0272725
66.45 0.00498792
66.49 0.0201374
66.53 0.0154121
66.57 0.00410214
66.61 0.0151262
66.65 0.0183339
66.69 -0.00404636
66.73 0.010772
66.77 0.000956268
66.81 0.00530397
66.85 0.0304334
66.89 0.00319175
66.93 0.0261687
66.97 -0.000467023
67.01 0.0113166
67.05 -0.00294976
67.09 0.0254853
67.13 0.0180435
67.17 0.0243243
67.21 0.0236873
67.25 0.00509544
67.29 0.0193301
67.33 -0.0171952
67.37 0.0017991
67.41 0.0276246
67.45 0.00383543
67.49 0.0142592
67.53 0.0137609
67.57 0.059091
67.61 0.0532189
67.65 0.0610227
67.69 0.0670056
67.73 0.0750989
67.77 0.0674727
67.81 0.0923446
67.85 0.0881411
67.89 0.0803399
67.93 0.0931054
67.97 0.0671003
68.01 0.0891154
68.05 0.0537914
68.09 0.0332851
68.13 0.0518835
68.17 0.0421648
68.21 0.0520715
68.25 0.0508648
68.29 0.0396791
68.33 0.0328832
68.37 0.0297259
68.41 0.0544964
68.45 0.019937
68.49 0.0101749
68.53 0.033207
68.57 -0.00154673
68.61 0.0080804
68.65 0.00062868
68.69 0.038989
68.73 0.0186965
68.77 0.00344464
68.81 0.0197573
68.85 0.0178634
68.89 -0.00210946
68.93 0.0140338
68.97 0.00425237
69.01 0.0398386
69.05 0.0190357
69.09 0.00129684
69.13 0.00546527
69.17 0.0136399
69.21 -0.000931345
69.25 0.00226709
69.29 0.00283328
69.33 -0.00565756
69.37 -0.00449477
69.41 0.00540687
69.45 -0.00562713
69.49 0.0235157
69.53 -0.00157869
69.57 0.00193765
69.61 0.0181164
69.65 0.00194594
69.69 0.019869
69.73 -0.000992096
69.77 0.0125001
69.81 -0.00520933
69.85 0.0112934
69.89 0.0373291
69.93 0.0348105
69.97 0.0339252
70.01 0.0293272
70.05 0.0268837
70.09 0.0587772
70.13 0.0409259
70.17 0.0198001
70.21 0.0337048
70.25 0.0290977
70.29 0.00998918
70.33 0.0164004
70.37 0.00435871
70.41 0.0245849
70.45 0.00848657
70.49 0.0137408
70.53 0.0205152
70.57 0.0167361
70.61 0.0178822
70.65 -0.00677765
70.69 -0.00638258
70.73 0.0159967
70.77 0.0192357
70.81 0.0260557
70.85 0.0548509
70.89 0.040271
70.93 0.0733361
70.97 0.0986992
71.01 0.154235
71.05 0.20207
71.09 0.208141
71.13 0.229126
71.17 0.244523
71.21 0.260889
71.25 0.282185
71.29 0.265484
71.33 0.26486
71.37 0.286847
71.41 0.25709
71.45 0.241999
71.49 0.229314
71.53 0.210423
71.57 0.209005
71.61 0.145103
71.65 0.115175
71.69 0.0942654
71.73 0.0908718
71.77 0.056647
71.81 0.0588096
71.85 0.0399318
71.89 0.0249025
71.93 0.00891799
71.97 0.014418
72.01 0.0142585
72.05 0.0177495
72.09 0.0184575
72.13 0.0320283
72.17 0.0498302
72.21 0.0370071
72.25 0.0141826
72.29 0.0218965
72.33 0.036614
72.37 0.0350301
72.41 0.0155436
72.45 0.00566112
72.49 0.016079
72.53 0.00570493
72.57 0.00954531
72.61 0.00121332
72.65 0.0152742
72.69 0.0118234
72.73 0.00385755
72.77 -0.0105592
72.81 -0.00683186
72.85 -0.0123475
72.89 -0.0175878
72.93 0.014
72.97 -0.00832743
73.01 0.000799708
73.05 0.00908482
73.09 0.0148114
73.13 0.012772
73.17 0.0184887
73.21 0.0136111
73.25 0.0420146
73.29 0.0580883
73.33 0.060108
73.37 0.0622748
73.41 0.0380556
73.45 0.0520661
73.49 0.0503029
73.53 0.0218368
73.57 0.0310709
73.61 -0.00906868
73.65 -0.00905534
73.69 0.0167115
73.73 -0.0127024
73.755 -0.018662