File: data/xrd/xy/2019-05-30T15_13_14.483373+00_00_LBL_G9.xy
'Id: "" Comment: "Integrate frame EtNH3I_iPropyl_06_002.gfrmwith cursor Wedge Cursor #7" Operator: "UC Berkeley" Anode: "Co" Scantype: "TwoTheta" TimePerStep: "300"
14.875 -0.0372741
14.91 0.00384303
14.945 0.00142586
14.98 -0.0128106
15.015 0.0380216
15.05 -0.0355284
15.085 0.0301917
15.12 0.0755382
15.155 -0.0180016
15.19 0.0495501
15.225 0.0282801
15.26 0.0508971
15.295 0.0712782
15.33 0.00217326
15.365 0.0688792
15.4 0.0399367
15.435 0.0526181
15.47 0.0144603
15.505 0.0374652
15.54 0.076203
15.575 0.0615588
15.61 0.0339381
15.645 0.0319149
15.68 -0.00655375
15.715 0.0602863
15.75 0.0220354
15.785 -0.0131385
15.82 -0.00995376
15.855 0.0272947
15.89 0.0119231
15.925 0.0265371
15.96 0.0841241
15.995 0.072454
16.03 0.0749081
16.065 0.0494566
16.1 0.0796624
16.135 -0.00648066
16.17 0.0182576
16.205 -0.0203079
16.24 0.0325565
16.275 -0.0165635
16.31 0.0305247
16.345 0.0430841
16.38 -0.0197618
16.415 0.0315135
16.45 0.0408191
16.485 0.0105443
16.52 -0.0166631
16.555 0.030646
16.59 0.0102106
16.625 0.0566219
16.66 0.0826197
16.695 0.0298809
16.73 0.0511753
16.765 0.0142455
16.8 0.0052079
16.835 0.0316585
16.87 0.0203954
16.905 0.0585368
16.94 0.0668748
16.975 0.0253133
17.01 0.0251939
17.045 0.0614702
17.08 0.0326536
17.115 0.0301015
17.15 0.0688178
17.185 0.0318943
17.22 0.0285241
17.255 0.0116219
17.29 0.00106187
17.325 0.0243702
17.36 0.0288889
17.395 0.0624352
17.43 0.0467589
17.465 0.0155244
17.5 -0.00893557
17.535 0.0554404
17.57 0.00650492
17.605 0.038795
17.64 0.00459125
17.675 0.0153477
17.71 0.0366051
17.745 0.0655753
17.78 0.0450899
17.815 0.0567107
17.85 0.0469508
17.885 0.051201
17.92 0.00639317
17.955 0.0720317
17.99 0.015314
18.025 -0.0103054
18.06 0.000934613
18.095 0.0632283
18.13 0.00987257
18.165 0.0339936
18.2 0.0461343
18.235 -0.00334203
18.27 0.0157285
18.305 0.00271851
18.34 -0.0129563
18.375 0.00958335
18.41 0.0334071
18.445 -0.00614997
18.48 0.0449817
18.515 0.0680892
18.55 0.0559437
18.585 0.0198437
18.62 0.0580256
18.655 0.0421617
18.69 0.059441
18.725 0.0257326
18.76 0.0244784
18.795 0.0151041
18.83 0.0474201
18.865 0.019515
18.9 0.0504238
18.935 0.0105672
18.97 0.0431438
19.005 0.00280262
19.04 -0.0352865
19.075 -0.00662082
19.11 0.00319762
19.145 0.0336601
19.18 0.00721078
19.215 0.0135703
19.25 0.0246583
19.285 0.0149105
19.32 0.0219517
19.355 0.0421754
19.39 0.0562244
19.425 0.022992
19.46 0.00185095
19.495 0.057147
19.53 0.014363
19.565 -0.037476
19.6 0.00560972
19.635 0.0507395
19.67 0.0281256
19.705 0.0283286
19.74 0.00646776
19.775 0.0699023
19.81 0.00917001
19.845 -0.0220886
19.88 0.0507846
19.915 0.020288
19.95 0.0109163
19.985 0.0624143
20.02 0.0067308
20.055 0.0362253
20.09 0.0422154
20.125 0.024543
20.16 -0.0231198
20.195 0.0124712
20.23 0.0408442
20.265 0.0204571
20.3 0.0432833
20.335 -0.0102105
20.37 0.0536304
20.405 -0.0376758
20.44 0.00959014
20.475 0.050502
20.51 -0.0294851
20.545 0.000225611
20.58 0.0580291
20.615 0.00332044
20.65 -0.00692439
20.685 -0.0261111
20.72 0.0123715
20.755 -0.00826531
20.79 0.0500457
20.825 0.0602101
20.86 0.0358788
20.895 0.0256985
20.93 0.015484
20.965 0.00476325
21 -0.0053339
21.035 0.0141532
21.07 0.0302754
21.105 0.0830939
21.14 0.00660898
21.175 0.0349946
21.21 0.0646979
21.245 0.0517708
21.28 0.0444005
21.315 0.0706771
21.35 0.024733
21.385 0.0322945
21.42 0.0625859
21.455 0.00772452
21.49 -0.0116586
21.525 0.0601766
21.56 0.00357328
21.595 0.0247614
21.63 0.00545044
21.665 0.00958265
21.7 0.0232638
21.735 0.0518165
21.77 0.0857782
21.805 0.0556938
21.84 0.087324
21.875 0.0481462
21.91 0.0193532
21.945 0.0429676
21.98 0.102317
22.015 0.0865866
22.05 -0.0164511
22.085 0.0138412
22.12 -0.0214104
22.155 0.00424393
22.19 0.0591146
22.225 0.00981007
22.26 -0.0285966
22.295 0.0434622
22.33 0.00188158
22.365 -0.0282376
22.4 -0.00393484
22.435 0.072967
22.47 0.00145489
22.505 0.0126613
22.54 0.0119189
22.575 0.0303029
22.61 -0.0012139
22.645 -0.00318601
22.68 0.0283433
22.715 0.0184785
22.75 0.0479891
22.785 0.0807662
22.82 0.0692283
22.855 0.0141299
22.89 -0.00112454
22.925 0.0567079
22.96 0.0721049
22.995 0.06855
23.03 0.00672003
23.065 0.014195
23.1 0.0180122
23.135 0.0886256
23.17 0.0112747
23.205 0.0641739
23.24 0.0151342
23.275 0.0428675
23.31 0.068258
23.345 0.0382945
23.38 0.0345148
23.415 0.0264562
23.45 0.0254244
23.485 0.0283847
23.52 0.043252
23.555 0.0458581
23.59 -0.00717673
23.625 0.0355391
23.66 -0.00991509
23.695 0.0263854
23.73 0.00680252
23.765 0.0319259
23.8 -0.00990802
23.835 0.0178599
23.87 0.0311987
23.905 0.0540113
23.94 0.0322755
23.975 -0.0285601
24.01 0.0263218
24.045 0.0431122
24.08 0.0116376
24.115 0.0281244
24.15 0.0119164
24.185 0.0145249
24.22 0.0272549
24.255 -0.0151693
24.29 0.0415595
24.325 0.0346739
24.36 -0.00340604
24.395 -0.0204995
24.43 -0.00829171
24.465 0.0667038
24.5 -0.00575919
24.535 0.0429728
24.57 0.0115648
24.605 0.0495075
24.64 0.0459461
24.675 0.0559908
24.71 0.0297566
24.745 0.0501817
24.78 0.00799969
24.815 0.0163273
24.85 -0.0209895
24.885 0.0259484
24.92 0.0411903
24.955 0.0793871
24.99 0.0680346
25.025 0.0583091
25.06 0.0808817
25.095 0.146704
25.13 0.104714
25.165 0.14573
25.2 0.124812
25.235 0.174915
25.27 0.137533
25.305 0.229778
25.34 0.17551
25.375 0.106753
25.41 0.13515
25.445 0.0970886
25.48 0.083137
25.515 0.044563
25.55 0.0831355
25.585 0.070935
25.62 0.0481461
25.655 0.0344254
25.69 0.0339447
25.725 0.0291748
25.76 0.0100926
25.795 0.0449679
25.83 0.0121318
25.865 0.0347021
25.9 -0.0172055
25.935 -0.0140253
25.97 0.0123924
26.005 0.039567
26.04 0.0288174
26.075 0.0124972
26.11 0.0136207
26.145 -0.0247637
26.18 0.00499795
26.215 0.0267999
26.25 -0.0165073
26.285 0.0165358
26.32 0.0129821
26.355 0.041188
26.39 0.0582234
26.425 0.0521824
26.46 0.00424746
26.495 0.0238612
26.53 -0.0133657
26.565 0.0313268
26.6 -0.0136136
26.635 0.0112211
26.67 -0.00425333
26.705 -0.00532282
26.74 -0.00359176
26.775 0.0365003
26.81 0.00575013
26.845 0.0379505
26.88 0.00198808
26.915 -0.0169002
26.95 0.00981628
26.985 0.0314319
27.02 -0.0155291
27.055 0.0292818
27.09 -0.00879781
27.125 0.0433972
27.16 0.019138
27.195 -0.01944
27.23 0.0494082
27.265 0.0125749
27.3 0.0301624
27.335 -0.0128299
27.37 0.0368657
27.405 0.0788561
27.44 0.0151213
27.475 0.0431572
27.51 0.106024
27.545 0.0953948
27.58 0.0322228
27.615 0.0419302
27.65 -0.00928918
27.685 0.058181
27.72 0.059452
27.755 0.0540429
27.79 0.055024
27.825 0.0694909
27.86 0.0508224
27.895 0.084342
27.93 0.117927
27.965 0.057078
28 0.0586406
28.035 0.0668769
28.07 0.0678503
28.105 0.0502336
28.14 0.0621312
28.175 0.0528668
28.21 0.121089
28.245 0.0730237
28.28 0.0812092
28.315 0.0511166
28.35 0.0631539
28.385 0.051155
28.42 0.070023
28.455 0.0559683
28.49 0.0397854
28.525 -0.00870061
28.56 0.0727527
28.595 0.00840298
28.63 0.0178419
28.665 0.0361997
28.7 0.0566899
28.735 -0.00247569
28.77 0.0540023
28.805 0.0528572
28.84 0.0267046
28.875 0.0613406
28.91 0.0873907
28.945 0.0640793
28.98 0.0912608
29.015 0.0829862
29.05 0.0940809
29.085 0.0831779
29.12 0.0823291
29.155 0.101767
29.19 0.0782008
29.225 0.0378741
29.26 0.0399568
29.295 0.0412789
29.33 0.0505682
29.365 0.0562666
29.4 0.0404625
29.435 0.0419416
29.47 0.0536396
29.505 0.0349145
29.54 0.0233849
29.575 0.03789
29.61 0.0530302
29.645 0.0684476
29.68 0.0285569
29.715 0.0293677
29.75 -0.00742765
29.785 0.0170812
29.82 0.0335109
29.855 0.00747086
29.89 -0.0244049
29.925 0.042246
29.96 0.0156744
29.995 -0.034755
30.03 -0.0168059
30.065 0.0166203
30.1 0.00475571
30.135 0.00326321
30.17 0.012775
30.205 0.0160371
30.24 0.036661
30.275 0.0157328
30.31 0.0143901
30.345 0.0474791
30.38 0.0422655
30.415 0.0682125
30.45 0.0841463
30.485 0.0829195
30.52 0.125882
30.555 0.141321
30.59 0.145379
30.625 0.133048
30.66 0.183053
30.695 0.233505
30.73 0.269064
30.765 0.285688
30.8 0.303717
30.835 0.322941
30.87 0.359584
30.905 0.310313
30.94 0.338194
30.975 0.382581
31.01 0.324329
31.045 0.285669
31.08 0.288718
31.115 0.260427
31.15 0.290979
31.185 0.203411
31.22 0.136101
31.255 0.13969
31.29 0.121591
31.325 0.124096
31.36 0.0850148
31.395 0.0744528
31.43 0.069767
31.465 0.053152
31.5 0.0675664
31.535 0.0238344
31.57 0.00516542
31.605 0.0369483
31.64 0.0495579
31.675 0.00270092
31.71 -0.000659556
31.745 0.0193795
31.78 0.0242057
31.815 -0.0126975
31.85 -0.00970747
31.885 0.00330419
31.92 0.0350809
31.955 0.0209808
31.99 -0.00647825
32.025 -0.00910441
32.06 0.00294866
32.095 -0.0146985
32.13 0.00427921
32.165 0.00963965
32.2 0.00558179
32.235 0.0116361
32.27 0.00702603
32.305 0.0113739
32.34 0.0343983
32.375 0.0109229
32.41 0.0283371
32.445 0.034709
32.48 0.0143597
32.515 0.0503422
32.55 0.019971
32.585 0.0454376
32.62 -3.90554e-05
32.655 -0.0094502
32.69 0.0198084
32.725 0.0556338
32.76 0.00465729
32.795 -0.0104711
32.83 0.00548539
32.865 0.0140516
32.9 -0.00177339
32.935 0.0116471
32.97 -0.0149738
33.005 -0.0168319
33.04 0.0210405
33.075 -0.00154429
33.11 0.00964466
33.145 0.0062997
33.18 -0.0192227
33.215 0.00370842
33.25 0.00217458
33.285 0.00483548
33.32 0.00459256
33.355 0.0128885
33.39 -0.0101338
33.425 -0.0171626
33.46 -0.0113524
33.495 0.00942513
33.53 0.0100754
33.565 0.0107362
33.6 0.0220426
33.635 0.0250035
33.67 0.0148351
33.705 0.0201623
33.74 0.0146704
33.775 0.0161441
33.81 0.0488852
33.845 0.0159223
33.88 -0.0151298
33.915 0.00181795
33.95 0.00527886
33.985 0.0134523
34.02 0.0235491
34.055 0.0396605
34.09 0.0336319
34.125 -0.0244261
34.16 0.00397574
34.195 0.0247174
34.23 0.0196349
34.265 0.0256819
34.3 -0.00331415
34.335 -0.00417522
34.37 -0.0109438
34.405 0.0243563
34.44 0.019558
34.475 0.0220358
34.51 -0.00937829
34.545 -0.0120786
34.58 0.00384446
34.615 -0.00853943
34.65 0.0291434
34.685 -0.0121439
34.72 -0.00499339
34.755 0.0262282
34.79 0.0233565
34.825 0.0309278
34.86 0.0258924
34.895 0.00142553
34.93 0.0169642
34.965 0.0115743
35 0.0365409
35.035 0.020405
35.07 0.0318066
35.105 0.0188968
35.14 0.00502965
35.175 0.034708
35.21 0.0333398
35.245 0.00304331
35.28 0.0264145
35.315 0.0278283
35.35 0.0211891
35.385 0.0372633
35.42 0.0520985
35.455 0.0404442
35.49 0.0443726
35.525 0.0650756
35.56 0.0852371
35.595 0.0855637
35.63 0.119583
35.665 0.0996062
35.7 0.12097
35.735 0.0938148
35.77 0.105955
35.805 0.101803
35.84 0.103984
35.875 0.109255
35.91 0.0760105
35.945 0.0756432
35.98 0.0289244
36.015 0.0718128
36.05 0.0747466
36.085 0.0374315
36.12 0.042124
36.155 0.0265912
36.19 0.0332339
36.225 -0.00952249
36.26 0.0395495
36.295 0.018439
36.33 0.03134
36.365 0.00785749
36.4 -0.00716553
36.435 0.0260125
36.47 0.000833534
36.505 -0.0165548
36.54 -0.024918
36.575 0.00979135
36.61 -0.00159582
36.645 0.0145327
36.68 -0.00130307
36.715 0.00399119
36.75 0.00491427
36.785 0.0195557
36.82 0.00791501
36.855 0.00650282
36.89 -0.00102424
36.925 0.0108804
36.96 0.0127606
36.995 0.0283835
37.03 0.0184602
37.065 0.0191147
37.1 0.00517223
37.135 0.0218215
37.17 0.0138705
37.205 0.0301269
37.24 0.0232255
37.275 0.00105251
37.31 0.0125474
37.345 0.0126743
37.38 0.0282585
37.415 0.00136935
37.45 0.0169579
37.485 0.00255847
37.52 -0.0135823
37.555 -0.012678
37.59 -0.000439984
37.625 0.0254869
37.66 -0.00141644
37.695 0.0207169
37.73 0.00606362
37.765 -0.0104631
37.8 0.0226597
37.835 -0.000327937
37.87 0.00454657
37.905 0.000462418
37.94 0.0131818
37.975 0.00322604
38.01 -0.0163652
38.045 0.00494867
38.08 -0.0149255
38.115 -0.00970479
38.15 -0.0124514
38.185 0.0105299
38.22 -0.00660485
38.255 0.0161847
38.29 0.00599867
38.325 -0.0278895
38.36 -0.00164081
38.395 -0.00254938
38.43 -0.028355
38.465 -0.00370687
38.5 0.00464521
38.535 0.000411104
38.57 -0.00491181
38.605 0.00689154
38.64 -0.0053402
38.675 0.0266426
38.71 0.00491608
38.745 -0.0171454
38.78 0.0136866
38.815 0.00908463
38.85 -0.008889
38.885 -0.0126942
38.92 0.0144186
38.955 0.0229551
38.99 0.00793431
39.025 0.00484882
39.06 0.0155294
39.095 0.0127169
39.13 0.0168285
39.165 -0.00707246
39.2 -0.00960257
39.235 -0.00471419
39.27 0.0166809
39.305 -0.0131039
39.34 -0.00112127
39.375 -0.00891914
39.41 -0.0189273
39.445 -0.0172561
39.48 -0.0159326
39.515 -0.0114477
39.55 -0.0295418
39.585 0.00720305
39.62 -0.00600139
39.655 -0.0161535
39.69 0.00510795
39.725 0.0106942
39.76 0.00481316
39.795 -0.0151503
39.83 0.00540247
39.865 -0.0206276
39.9 -0.0143596
39.935 -0.0148229
39.97 0.00983813
40.005 -0.00218928
40.04 -0.00218112
40.075 -0.00473466
40.11 0.0170867
40.145 -0.0121543
40.18 0.02894
40.215 0.042277
40.25 0.0181358
40.285 0.0189956
40.32 0.0122891
40.355 0.0493425
40.39 0.032297
40.425 0.0346835
40.46 0.0314717
40.495 0.00176548
40.53 0.00805523
40.565 0.0241996
40.6 0.0318253
40.635 0.0309778
40.67 0.017994
40.705 0.00881367
40.74 0.013128
40.775 -0.0056525
40.81 -0.0162758
40.845 0.0398783
40.88 0.00133698
40.915 -0.0053325
40.95 0.00443816
40.985 0.0250857
41.02 -0.00140145
41.055 -0.00668522
41.09 -0.01397
41.125 -0.00284208
41.16 -0.00449469
41.195 -0.00532698
41.23 0.0194077
41.265 0.00380417
41.3 -0.0118504
41.335 -0.00143856
41.37 -0.00480015
41.405 0.0088644
41.44 -0.00202946
41.475 -0.00138996
41.51 0.00501322
41.545 -0.00546702
41.58 0.0148275
41.615 0.00740436
41.65 0.0114043
41.685 0.0060901
41.72 -0.00767427
41.755 0.00342102
41.79 0.0055909
41.825 -0.00387309
41.86 0.0138631
41.895 -0.0027887
41.93 -0.019132
41.965 0.00424089
42 -0.0182667
42.035 0.00118402
42.07 -0.000668038
42.105 0.000377772
42.14 0.0251881
42.175 0.00404547
42.21 -0.00175711
42.245 0.0243667
42.28 0.000554133
42.315 0.00147211
42.35 -0.00524003
42.385 -0.0251701
42.42 0.00621915
42.455 -0.0137708
42.49 0.0117544
42.525 0.0134204
42.56 -0.00126048
42.595 0.0131468
42.63 -0.000508251
42.665 0.0310451
42.7 0.0143337
42.735 -0.0175853
42.77 0.00851802
42.805 0.009172
42.84 0.00515891
42.875 -0.00564218
42.91 0.0125941
42.945 -0.00296629
42.98 0.0267665
43.015 0.0145337
43.05 -0.00152638
43.085 0.0398304
43.12 0.0368209
43.155 0.0302096
43.19 0.0587848
43.225 0.0497944
43.26 0.0801099
43.295 0.0942717
43.33 0.0823337
43.365 0.13934
43.4 0.146326
43.435 0.164416
43.47 0.157616
43.505 0.215988
43.54 0.243789
43.575 0.272028
43.61 0.229573
43.645 0.276796
43.68 0.25294
43.715 0.191352
43.75 0.177189
43.785 0.158632
43.82 0.128586
43.855 0.123665
43.89 0.0927181
43.925 0.0610287
43.96 0.0862199
43.995 0.0512841
44.03 0.0532798
44.065 0.0537848
44.1 0.0280867
44.135 0.0564196
44.17 0.0589512
44.205 0.0408898
44.24 0.0570053
44.275 0.0343284
44.31 0.0254596
44.345 0.0332322
44.38 0.0476563
44.415 0.0487311
44.45 0.026101
44.485 0.0376735
44.52 -0.0282468
44.555 0.0175114
44.59 0.00859118
44.625 0.0254368
44.66 0.00907579
44.695 0.0311667
44.73 0.0157238
44.765 -0.00227203
44.8 0.0355811
44.835 0.0262083
44.87 0.00291658
44.905 0.0118087
44.94 0.0184348
44.975 0.0205344
45.01 0.0155415
45.045 0.00461614
45.08 0.00522318
45.115 0.00870018
45.15 0.0121454
45.185 0.0109662
45.22 0.00630291
45.255 0.00611584
45.29 0.0242856
45.325 -0.00636011
45.36 -0.0233048
45.395 0.0297031
45.43 -0.0256933
45.465 -0.0113189
45.5 0.00167641
45.535 0.000216983
45.57 0.0260042
45.605 0.0383344
45.64 -0.0138462
45.675 0.00788035
45.71 -0.0114081
45.745 -0.0016587
45.78 0.00972459
45.815 0.0283009
45.85 0.00261683
45.885 0.012331
45.92 0.0388503
45.955 0.021831
45.99 0.00819591
46.025 0.0386006
46.06 0.0642663
46.095 0.07807
46.13 0.0280954
46.165 0.0387115
46.2 0.0433785
46.235 0.0674905
46.27 0.0489274
46.305 0.0466494
46.34 0.0466689
46.375 0.0353811
46.41 0.0464263
46.445 0.0363387
46.48 0.0224327
46.515 0.0155875
46.55 0.0122612
46.585 0.0227529
46.62 0.0225284
46.655 0.0100288
46.69 -0.00162607
46.725 0.00188816
46.76 0.0282532
46.795 0.0388746
46.83 0.0175206
46.865 0.0177706
46.9 0.0175284
46.935 0.0379777
46.97 0.0297106
47.005 0.0211786
47.04 0.0152906
47.075 0.0385223
47.11 0.0256146
47.145 0.0467134
47.18 0.0370272
47.215 0.0473124
47.25 0.045804
47.285 0.0512442
47.32 0.0394539
47.355 0.0417117
47.39 0.0440836
47.425 0.0524632
47.46 0.0427802
47.495 0.0365284
47.53 0.0387469
47.565 0.0271763
47.6 0.0658357
47.635 0.0336561
47.67 0.0491903
47.705 0.0504133
47.74 0.0785516
47.775 0.056591
47.81 0.057832
47.845 0.0469379
47.88 0.0732984
47.915 0.0795084
47.95 0.0674679
47.985 0.0671175
48.02 0.0861764
48.055 0.0492794
48.09 0.0541024
48.125 0.0543268
48.16 0.0498824
48.195 0.0468539
48.23 0.0400329
48.265 0.0467223
48.3 0.0380165
48.335 0.0274914
48.37 0.0225414
48.405 0.0286781
48.44 0.0226802
48.475 0.0159664
48.51 0.00705285
48.545 0.00260429
48.58 0.00525566
48.615 0.0121946
48.65 0.013159
48.685 0.0130293
48.72 -0.00412173
48.755 0.0026428
48.79 -0.0146076
48.825 0.00610787
48.86 0.00353391
48.895 0.00587501
48.93 0.000784889
48.965 -0.00867341
49 0.0143975
49.035 8.23618e-05
49.07 -0.00491677
49.105 0.00343194
49.14 -0.0142801
49.175 -0.00210574
49.21 -0.00885819
49.245 0.00704262
49.28 -0.00895191
49.315 -0.00173193
49.35 -0.00747051
49.385 0.0231404
49.42 -0.00265498
49.455 0.00913174
49.49 0.013547
49.525 0.000663296
49.56 0.00654364
49.595 0.002401
49.63 0.00528854
49.665 0.0117967
49.7 0.0129063
49.735 -0.000354848
49.77 -0.00222708
49.805 -0.00633759
49.84 -0.0131034
49.875 0.000495092
49.91 0.0106255
49.945 -0.000222142
49.98 -0.0230103
50.015 -0.000200462
50.05 -0.0119193
50.085 -0.00673141
50.12 0.00191993
50.155 -0.00849372
50.19 -0.00556837
50.225 0.00380666
50.26 0.0210921
50.295 -0.00706862
50.33 -0.00140221
50.365 -0.005577
50.4 -0.0130827
50.435 0.0144316
50.47 -0.00102133
50.505 0.00750012
50.54 0.00206034
50.575 0.00541053
50.61 0.00924069
50.645 0.0134153
50.68 0.0157839
50.715 0.0216656
50.75 0.0221675
50.785 0.0317587
50.82 0.0412836
50.855 0.0368992
50.89 0.0426301
50.925 0.0304746
50.96 0.0440715
50.995 0.0608315
51.03 0.0607468
51.065 0.0602518
51.1 0.0710728
51.135 0.0599796
51.17 0.0480816
51.205 0.0478968
51.24 0.0541123
51.275 0.0466197
51.31 0.061972
51.345 0.0245673
51.38 0.0344096
51.415 0.0158591
51.45 0.033286
51.485 0.0164016
51.52 -0.00375031
51.555 0.0352168
51.59 0.00629239
51.625 -0.0175493
51.66 0.0158622
51.695 0.012251
51.73 -0.0240983
51.765 -0.000446289
51.8 -0.0149628
51.835 -0.00110226
51.87 -0.00165587
51.905 -0.00137408
51.94 0.00252941
51.975 0.00513414
52.01 -0.00821392
52.045 0.00389807
52.08 -0.00595165
52.115 -0.00286299
52.15 -0.0181952
52.185 -0.0105562
52.22 0.00474366
52.255 0.000497108
52.29 -0.0164162
52.325 0.0169835
52.36 -0.00150225
52.395 -0.00534236
52.43 -0.0126566
52.465 -0.00344676
52.5 -0.00414728
52.535 0.00246766
52.57 -0.00194593
52.605 -0.0106711
52.64 -0.0185119
52.675 0.00383853
52.71 0.0211207
52.745 -0.00287055
52.78 0.00605125
52.815 -0.00411678
52.85 0.0137301
52.885 0.00766745
52.92 -0.00832595
52.955 -0.00163052
52.99 0.00535766
53.025 -0.0114423
53.06 0.000608564
53.095 0.00319319
53.13 -0.0156441
53.165 0.00806012
53.2 0.00213707
53.235 -0.0156987
53.27 -0.00223416
53.305 -0.00204478
53.34 -0.0155152
53.375 -0.0184148
53.41 -0.00585061
53.445 -0.00704906
53.48 -0.0151287
53.515 -0.00969725
53.55 -0.000918665
53.585 -0.00533398
53.62 0.00453898
53.655 0.00279379
53.69 -0.00344356
53.725 -0.0125598
53.76 -0.00956359
53.795 -0.0190088
53.83 -0.00194153
53.865 -0.00338264
53.9 0.00160144
53.935 -0.0152721
53.97 -0.00402449
54.005 0.00506959
54.04 -0.00907681
54.075 -0.00779077
54.11 0.00995659
54.145 0.0116251
54.18 0.00247047
54.215 -0.00302309
54.25 -0.00766141
54.285 0.0114524
54.32 -0.00657485
54.355 -0.015183
54.39 -0.00322219
54.425 0.00014953
54.46 -0.000593407
54.495 0.00880895
54.53 0.00032443
54.565 0.00720868
54.6 0.0058793
54.635 0.0105373
54.67 -0.000220673
54.705 0.00804051
54.74 0.0101482
54.775 0.0170977
54.81 0.0129539
54.845 0.00887483
54.88 -0.00576797
54.915 -0.0150674
54.95 0.00952849
54.985 -0.00438625
55.02 -0.00564161
55.055 -0.00908359
55.09 0.00774462
55.125 0.0104071
55.16 -0.00747791
55.195 -0.00236309
55.23 -0.00321748
55.265 0.003238
55.3 -0.0186846
55.335 0.00736668
55.37 0.00142885
55.405 0.0035294
55.44 -0.0100994
55.475 -0.00192567
55.51 -0.0106262
55.545 -0.00289471
55.58 0.0113914
55.615 -0.00499023
55.65 0.00298381
55.685 0.000257707
55.72 -0.0123951
55.755 -0.00827826
55.79 0.00402821
55.825 -0.0020726
55.86 0.00384657
55.895 0.0114486
55.93 -0.00160443
55.965 -0.00229038
56 -0.000814923
56.035 0.0123718
56.07 0.000499116
56.105 -0.0096478
56.14 -0.00798522
56.175 -0.0116695
56.21 -0.0071774
56.245 -0.00977125
56.28 -0.0131002
56.315 0.0180263
56.35 0.0131997
56.385 0.00652375
56.42 -0.00767793
56.455 -0.0134731
56.49 -0.00917179
56.525 7.37712e-05
56.56 0.0108878
56.595 0.003986
56.63 0.00469015
56.665 -0.00159326
56.7 -0.00892852
56.735 -0.00440117
56.77 0.0230808
56.805 0.0054709
56.84 -0.00615973
56.875 -0.0122198
56.91 0.00730969
56.945 0.00695279
56.98 0.00340995
57.015 -0.0141457
57.05 -0.000223088
57.085 0.0158135
57.12 0.00932324
57.155 0.00589255
57.19 0.0232034
57.225 0.0219188
57.26 0.0253959
57.295 0.0192299
57.33 0.0409556
57.365 0.0277446
57.4 0.0213411
57.435 0.0279078
57.47 0.0422544
57.505 0.0553574
57.54 0.0539045
57.575 0.051452
57.61 0.0599849
57.645 0.0457473
57.68 0.0654298
57.715 0.043959
57.75 0.0449272
57.785 0.0302586
57.82 0.0418163
57.855 0.0343664
57.89 0.0314063
57.925 0.0198226
57.96 0.0158297
57.995 0.0115126
58.03 0.0266075
58.065 0.0270049
58.1 0.00308492
58.135 0.0294799
58.17 -0.0018398
58.205 0.00238171
58.24 0.0193664
58.275 0.00408632
58.31 0.0137104
58.345 0.0287615
58.38 0.00548569
58.415 0.0177223
58.45 -0.0150525
58.485 0.00158953
58.52 0.0121838
58.555 -0.0155843
58.59 0.0080718
58.625 0.00446041
58.66 0.0179942
58.695 0.0108228
58.73 -0.00438693
58.765 -0.0134689
58.8 0.00317547
58.835 -0.000333885
58.87 0.0140724
58.905 -0.0213432
58.94 0.0106082
58.975 0.00808754
59.01 -0.00944241
59.045 -0.000317232
59.08 -0.0146469
59.115 0.0151869
59.15 -0.00277909
59.185 -0.0194806
59.22 0.0127628
59.255 0.016085
59.29 -0.00519338
59.325 -0.0110606
59.36 0.0108503
59.395 0.00657237
59.43 0.0125807
59.465 0.00487725
59.5 0.00228537
59.535 -0.00440236
59.57 0.00325591
59.605 -0.00215967
59.64 0.000500154
59.675 0.0292671
59.71 0.0147703
59.745 0.0170962
59.78 0.0108739
59.815 0.00029066
59.85 -0.00429195
59.885 -0.00643154
59.92 0.0100249
59.955 0.0094561
59.99 0.019187
60.025 -0.00677313
60.06 0.00843097
60.095 0.00214608
60.13 0.0138637
60.165 0.0125253
60.2 -0.017821
60.235 0.0136406
60.27 -0.00522198
60.305 -0.000930043
60.34 -0.0150926
60.375 0.00688136
60.41 -0.0149817
60.445 -0.0150989
60.48 -0.0188683
60.515 -0.00813853
60.55 -0.000562704
60.585 -0.0181269
60.62 0.00323515
60.655 -0.000175725
60.69 0.00464991
60.725 -0.000976469
60.76 -0.00113997
60.795 0.0121199
60.83 0.0267435
60.865 0.0105834
60.9 0.00587156
60.935 0.00726607
60.97 0.0110493
61.005 -0.00637551
61.04 0.000870554
61.075 -0.0017782
61.11 0.0014946
61.145 0.0126318
61.18 -0.0208495
61.215 0.00469318
61.25 0.0161845
61.285 -0.00461513
61.32 0.00720663
61.355 0.0112918
61.39 -0.00668864
61.425 -0.00823062
61.46 -0.0221223
61.495 -0.00263514
61.53 0.0131007
61.565 0.00276924
61.6 0.0138325
61.635 -0.00171223
61.67 -0.017952
61.705 0.00539089
61.74 -0.0157308
61.775 0.00313438
61.81 0.0238905
61.845 0.0198316
61.88 0.0226314
61.915 0.00858331
61.95 -0.018762
61.985 -0.00345328
62.02 0.00640573
62.055 0.00103916
62.09 -0.00835872
62.125 -0.00556709
62.16 -0.000688732
62.195 0.010192
62.23 0.00441175
62.265 -0.000466889
62.3 -0.00691116
62.335 0.0104967
62.37 0.0136409
62.405 -0.00894755
62.44 0.017697
62.475 -0.00564765
62.51 -0.0155127
62.545 -0.00176183
62.58 0.00834944
62.615 0.012318
62.65 -0.00365576
62.685 -0.00917016
62.72 0.00905244
62.755 -0.0159042
62.79 0.00267107
62.825 0.00494772
62.86 0.00161921
62.895 0.00203833
62.93 -0.00717769
62.965 0.00392435
63 0.0173865
63.035 0.00237984
63.07 0.00540743
63.105 -0.000210993
63.14 -0.00934594
63.175 -0.00258216
63.21 0.0177758
63.245 0.0108921
63.28 0.011893
63.315 0.0261144
63.35 0.0167013
63.385 -0.00517864
63.42 0.00619837
63.455 0.00253135
63.49 0.0212544
63.525 0.00980212
63.56 -0.00600514
63.595 0.0205727
63.63 0.00623473
63.665 0.011595
63.7 0.0246653
63.735 0.00115946
63.77 0.00936831
63.805 0.0236889
63.84 0.00070044
63.875 0.00392166
63.91 0.00806757
63.945 0.0285897
63.98 0.0133659
64.015 0.00463423
64.05 0.0231818
64.085 0.014279
64.12 0.00269596
64.155 0.00607745
64.19 0.0122741
64.225 0.00745705
64.26 0.00623929
64.295 -0.00434368
64.33 0.0113416
64.365 0.00355052
64.4 -0.000129102
64.435 0.0148318
64.47 0.0178612
64.505 0.0171123
64.54 0.00114021
64.575 0.00239503
64.61 -0.0163344
64.645 0.0117583
64.68 0.0114242
64.715 0.00764128
64.75 0.0283758
64.785 0.0142041
64.82 0.00781167
64.855 0.00470304
64.89 0.0221106
64.925 0.011823
64.96 0.0039793
64.995 0.0176835
65.03 0.00999394
65.065 0.00468764
65.1 0.0103548
65.135 -0.00348534
65.17 0.0113857
65.205 0.0179462
65.24 -0.00146329
65.275 -0.0011808
65.31 0.00362141
65.345 0.024764
65.38 0.0307757
65.415 -0.00801094
65.45 -0.0110161
65.485 -0.0136348
65.52 0.0134156
65.555 0.00129065
65.59 -0.00170414
65.625 -0.0140316
65.66 0.0232404
65.695 -0.00579321
65.73 -0.0215196
65.765 0.00217499
65.8 0.000633101
65.835 -0.00234213
65.87 0.0043236
65.905 -0.00622841
65.94 -0.0115146
65.975 -0.0182668
65.98 -0.0220751