File: data/xrd/xy/2019-02-21T16_43_20.274786+00_00_LBL.xy
'Id: "" Comment: "Integrate frame ibutyl0_00_003.gfrmwith cursor Wedge Cursor #1" Operator: "UC Berkeley" Anode: "Co" Scantype: "TwoTheta" TimePerStep: "600"
14.08 -0.0261277
14.12 -0.0185539
14.16 0.0509469
14.2 0.0332387
14.24 0.0726572
14.28 0.0710004
14.32 0.0356611
14.36 0.0443724
14.4 0.0738652
14.44 0.0745157
14.48 0.0777237
14.52 0.0575739
14.56 0.0304702
14.6 0.0405582
14.64 0.0560157
14.68 0.0553887
14.72 0.0379902
14.76 0.00308964
14.8 0.00815802
14.84 0.0227219
14.88 0.0416735
14.92 0.00021114
14.96 0.0299464
15 -0.00573677
15.04 0.0216608
15.08 0.0518135
15.12 0.040168
15.16 0.0539672
15.2 0.0518485
15.24 0.0741094
15.28 0.100606
15.32 0.0663835
15.36 0.0462964
15.4 0.113979
15.44 0.125979
15.48 0.211652
15.52 0.316071
15.56 0.552727
15.6 0.815142
15.64 1.02617
15.68 1.1723
15.72 1.10601
15.76 0.806263
15.8 0.579045
15.84 0.353842
15.88 0.184296
15.92 0.115428
15.96 0.0980341
16 0.0493398
16.04 0.0211972
16.08 0.0338997
16.12 0.0450645
16.16 0.0427773
16.2 0.0435748
16.24 0.0229877
16.28 0.0408613
16.32 0.011658
16.36 0.00830758
16.4 0.0445
16.44 0.00496186
16.48 0.0396761
16.52 0.0570192
16.56 0.00121317
16.6 0.0521382
16.64 0.0663941
16.68 0.0298609
16.72 0.0538682
16.76 0.0230079
16.8 0.109513
16.84 0.118252
16.88 0.0756221
16.92 0.0777617
16.96 0.0443755
17 0.0438398
17.04 0.039402
17.08 0.0142219
17.12 0.0164149
17.16 0.0230369
17.2 0.0755711
17.24 -0.00202906
17.28 0.0190491
17.32 0.0106486
17.36 0.0253109
17.4 0.00830756
17.44 -0.00745209
17.48 0.00883924
17.52 0.0341699
17.56 0.017054
17.6 0.0307981
17.64 -0.0111198
17.68 0.0236348
17.72 -0.000940562
17.76 0.000359235
17.8 0.0116091
17.84 0.0318889
17.88 0.0251203
17.92 0.0128331
17.96 -0.0248962
18 0.0261933
18.04 -0.00535336
18.08 0.0163903
18.12 0.00550251
18.16 0.0378325
18.2 0.0441011
18.24 0.0500637
18.28 0.0223806
18.32 0.0164137
18.36 0.0538154
18.4 -0.00328125
18.44 0.00136124
18.48 0.0469362
18.52 0.013453
18.56 0.0357534
18.6 0.0355263
18.64 0.0275684
18.68 0.0142241
18.72 0.0315634
18.76 0.0193731
18.8 -0.0128317
18.84 0.0146299
18.88 0.00665922
18.92 0.0223313
18.96 0.0468583
19 0.00643917
19.04 0.0284278
19.08 0.0297937
19.12 0.00476352
19.16 0.0271752
19.2 0.0147328
19.24 0.0372806
19.28 0.0352938
19.32 0.0237387
19.36 0.0302459
19.4 0.0158206
19.44 0.0376018
19.48 0.0658702
19.52 0.0205823
19.56 0.0321516
19.6 0.0758981
19.64 0.0487994
19.68 0.039568
19.72 0.000731404
19.76 0.0422305
19.8 0.057535
19.84 0.0373574
19.88 0.00511563
19.92 0.0405971
19.96 -0.0170346
20 0.0468148
20.04 0.0152253
20.08 0.0480135
20.12 0.0656564
20.16 0.0627168
20.2 0.0433827
20.24 0.0767532
20.28 0.0573018
20.32 0.0213238
20.36 0.0504956
20.4 0.0103287
20.44 0.0103339
20.48 0.0226578
20.52 0.0119767
20.56 0.0113579
20.6 0.0496448
20.64 0.0141906
20.68 -0.00343917
20.72 -0.000761742
20.76 0.00592906
20.8 0.0134733
20.84 0.0616805
20.88 0.0227893
20.92 0.000999157
20.96 0.00631378
21 -0.00890219
21.04 0.0116172
21.08 0.0130053
21.12 0.0220123
21.16 0.027895
21.2 0.0240368
21.24 0.0083097
21.28 0.0261842
21.32 0.0340821
21.36 0.0122239
21.4 0.0172666
21.44 -0.0101883
21.48 0.0049284
21.52 0.0377072
21.56 -0.00362346
21.6 -0.00103433
21.64 0.011731
21.68 -0.00460485
21.72 0.0228575
21.76 0.0197608
21.8 0.00147416
21.84 0.0116612
21.88 0.00186438
21.92 0.00886167
21.96 0.00778455
22 0.0313416
22.04 0.0288837
22.08 -0.00416817
22.12 0.0116197
22.16 0.0335434
22.2 0.0312812
22.24 0.0325116
22.28 -0.00455828
22.32 0.0430967
22.36 0.0481248
22.4 0.0148214
22.44 0.03905
22.48 0.0401867
22.52 0.0414851
22.56 0.0558743
22.6 0.067372
22.64 0.0300632
22.68 0.0595349
22.72 0.0727886
22.76 0.0874878
22.8 0.0376343
22.84 0.0431545
22.88 0.101796
22.92 0.103414
22.96 0.0942814
23 0.0764186
23.04 0.164696
23.08 0.142156
23.12 0.193969
23.16 0.164454
23.2 0.215742
23.24 0.310557
23.28 0.422975
23.32 0.694361
23.36 1.32863
23.4 2.66535
23.44 5.73161
23.48 10.2824
23.52 15.2981
23.56 18.853
23.6 17.7927
23.64 13.6676
23.68 7.67381
23.72 3.57644
23.76 1.38459
23.8 0.618632
23.84 0.295283
23.88 0.253126
23.92 0.205515
23.96 0.18846
24 0.147158
24.04 0.149711
24.08 0.10932
24.12 0.116158
24.16 0.0952383
24.2 0.0913477
24.24 0.0889675
24.28 0.058499
24.32 0.0554167
24.36 0.055424
24.4 0.0508263
24.44 0.0603341
24.48 0.0594919
24.52 0.0215108
24.56 0.0509587
24.6 0.0380561
24.64 0.0477873
24.68 0.0324878
24.72 0.0155973
24.76 0.00534401
24.8 0.0224107
24.84 0.0528118
24.88 0.0461813
24.92 0.0246922
24.96 0.030901
25 0.0360587
25.04 0.0468149
25.08 0.00701701
25.12 0.0242247
25.16 0.0120327
25.2 0.00793784
25.24 0.0343394
25.28 0.00983314
25.32 0.0307306
25.36 0.0192711
25.4 0.00853759
25.44 0.0056466
25.48 0.00761937
25.52 0.0163675
25.56 0.0127821
25.6 0.0125481
25.64 0.0246231
25.68 0.00242469
25.72 -0.00903567
25.76 0.0184043
25.8 0.0359578
25.84 0.0336806
25.88 0.00681788
25.92 0.0110677
25.96 0.022213
26 0.0158505
26.04 0.0529918
26.08 0.0381522
26.12 0.102539
26.16 0.11911
26.2 0.177774
26.24 0.192838
26.28 0.222471
26.32 0.169157
26.36 0.124343
26.4 0.0721347
26.44 0.0324783
26.48 0.00225562
26.52 -0.0238577
26.56 0.0147064
26.6 0.030062
26.64 0.0358522
26.68 0.00540566
26.72 0.014459
26.76 0.044524
26.8 0.0157796
26.84 0.0500678
26.88 0.0145178
26.92 0.00970819
26.96 -0.0237381
27 0.0119338
27.04 0.0195108
27.08 0.0241498
27.12 0.0366966
27.16 0.00632484
27.2 -0.00299564
27.24 0.00672377
27.28 0.0302525
27.32 0.0609889
27.36 0.0358509
27.4 0.0207279
27.44 0.0653151
27.48 0.0289912
27.52 0.0267991
27.56 -0.0158355
27.6 0.0230609
27.64 0.0229476
27.68 0.00557399
27.72 0.0190228
27.76 0.0291604
27.8 0.0233278
27.84 0.060288
27.88 0.0845052
27.92 0.0279268
27.96 0.0275904
28 0.0456006
28.04 0.0027555
28.08 -0.00488068
28.12 -0.00395491
28.16 0.00240643
28.2 0.0220939
28.24 0.0151293
28.28 0.0219032
28.32 0.0762891
28.36 0.0237438
28.4 0.038459
28.44 0.0371791
28.48 0.0752791
28.52 0.0866818
28.56 0.029487
28.6 0.0234649
28.64 -0.0236777
28.68 0.0370607
28.72 0.0337716
28.76 0.0159423
28.8 0.0222393
28.84 0.0117808
28.88 0.0155645
28.92 0.0351221
28.96 0.00952518
29 0.00141235
29.04 -0.00546321
29.08 0.00509937
29.12 0.0174181
29.16 0.00555226
29.2 -0.00624854
29.24 0.0164822
29.28 0.0569581
29.32 0.00411736
29.36 0.0218408
29.4 0.00441476
29.44 0.00799881
29.48 -0.00407555
29.52 0.0148179
29.56 0.0123641
29.6 0.0258767
29.64 0.0104501
29.68 0.0249792
29.72 0.00162201
29.76 -0.000474138
29.8 0.0527097
29.84 0.0133869
29.88 0.0157858
29.92 0.0435397
29.96 0.0569247
30 0.0279107
30.04 0.0141527
30.08 0.041693
30.12 0.0652435
30.16 0.0393677
30.2 0.0578138
30.24 0.0518191
30.28 0.0690438
30.32 0.118169
30.36 0.0774151
30.4 0.129983
30.44 0.0959699
30.48 0.130927
30.52 0.11761
30.56 0.115097
30.6 0.114747
30.64 0.160037
30.68 0.169741
30.72 0.181223
30.76 0.16318
30.8 0.203287
30.84 0.211523
30.88 0.205974
30.92 0.236225
30.96 0.256927
31 0.271778
31.04 0.318943
31.08 0.348845
31.12 0.387312
31.16 0.459869
31.2 0.529761
31.24 0.596876
31.28 0.800758
31.32 1.03168
31.36 1.40108
31.4 2.37925
31.44 4.72452
31.48 10.085
31.52 19.0653
31.56 31.0781
31.6 39.7075
31.64 39.3022
31.68 31.1125
31.72 19.7558
31.76 10.2446
31.8 4.72051
31.84 2.02496
31.88 1.10263
31.92 0.787934
31.96 0.675204
32 0.63005
32.04 0.595026
32.08 0.678295
32.12 0.784038
32.16 0.947041
32.2 1.05891
32.24 1.06593
32.28 0.934685
32.32 0.78753
32.36 0.587211
32.4 0.445608
32.44 0.322951
32.48 0.266554
32.52 0.191686
32.56 0.169855
32.6 0.173915
32.64 0.177209
32.68 0.174982
32.72 0.139508
32.76 0.126523
32.8 0.102683
32.84 0.0935902
32.88 0.115385
32.92 0.117014
32.96 0.107402
33 0.114836
33.04 0.163642
33.08 0.184752
33.12 0.184641
33.16 0.143572
33.2 0.131745
33.24 0.094392
33.28 0.0855324
33.32 0.0449652
33.36 0.0606081
33.4 0.0582359
33.44 0.0450292
33.48 0.0618098
33.52 0.0399252
33.56 0.0708349
33.6 0.0577541
33.64 0.116663
33.68 0.131792
33.72 0.150631
33.76 0.114151
33.8 0.106794
33.84 0.0690145
33.88 0.0670235
33.92 0.0679219
33.96 0.0427069
34 0.0773535
34.04 0.0877964
34.08 0.0930841
34.12 0.108598
34.16 0.0847759
34.2 0.0674387
34.24 0.0258039
34.28 0.0160488
34.32 -0.000807139
34.36 0.0122411
34.4 -0.00625249
34.44 0.00732267
34.48 0.00859271
34.52 0.0137449
34.56 -0.00405603
34.6 0.0031693
34.64 0.00277349
34.68 -0.00821043
34.72 -0.0165194
34.76 0.000302257
34.8 0.00381615
34.84 0.00549667
34.88 -0.0137966
34.92 0.00446832
34.96 -0.000644583
35 -0.00922424
35.04 -0.0034611
35.08 -0.00139864
35.12 -0.007821
35.16 -0.00686311
35.2 -0.0211841
35.24 -0.00323725
35.28 0.0128925
35.32 -0.00338323
35.36 -0.00152958
35.4 0.00318127
35.44 0.0196792
35.48 0.0118387
35.52 0.00787506
35.56 0.0163647
35.6 0.0136468
35.64 0.0149508
35.68 0.020825
35.72 -0.000329281
35.76 0.00203646
35.8 0.0110081
35.84 0.00384153
35.88 -0.0114741
35.92 -0.00921587
35.96 0.0119206
36 -0.01369
36.04 -0.00896237
36.08 0.00329864
36.12 -0.00287923
36.16 0.0130003
36.2 -0.00622855
36.24 -0.0108775
36.28 -0.0115123
36.32 0.00786568
36.36 0.0157363
36.4 -0.00132504
36.44 -0.0104598
36.48 0.0116717
36.52 0.00773118
36.56 -0.00277004
36.6 -0.00220093
36.64 -0.011086
36.68 0.00319413
36.72 0.0183274
36.76 0.0146638
36.8 0.0260173
36.84 0.0172356
36.88 0.014942
36.92 0.0477803
36.96 0.0313983
37 0.0745332
37.04 0.0536968
37.08 0.0552999
37.12 0.0456114
37.16 0.0321503
37.2 0.0168052
37.24 -0.000219704
37.28 0.0152964
37.32 0.0140951
37.36 0.0107189
37.4 0.00329947
37.44 0.0118019
37.48 0.000494761
37.52 -0.0129028
37.56 0.00153561
37.6 0.00907229
37.64 0.0497346
37.68 0.0530473
37.72 0.0666652
37.76 0.0732485
37.8 0.0757639
37.84 0.0405712
37.88 0.0407931
37.92 0.0391852
37.96 0.0387751
38 0.0226013
38.04 0.0452212
38.08 0.030988
38.12 0.0435768
38.16 0.0572402
38.2 0.0377929
38.24 0.0612885
38.28 0.0343465
38.32 0.0377765
38.36 0.0354378
38.4 0.0251585
38.44 0.0345347
38.48 0.0404835
38.52 0.0529827
38.56 0.0419091
38.6 0.0509609
38.64 0.0746699
38.68 0.0596497
38.72 0.0735759
38.76 0.0859883
38.8 0.107733
38.84 0.0937406
38.88 0.0839942
38.92 0.0964333
38.96 0.109339
39 0.114094
39.04 0.112484
39.08 0.131644
39.12 0.143897
39.16 0.183745
39.2 0.214235
39.24 0.278718
39.28 0.377323
39.32 0.547645
39.36 0.778526
39.4 1.07688
39.44 1.30464
39.48 1.54895
39.52 1.75084
39.56 2.0423
39.6 2.49342
39.64 3.49801
39.68 5.76222
39.72 9.59292
39.76 14.3776
39.8 18.4307
39.84 20.5453
39.88 18.3701
39.92 14.0988
39.96 9.07608
40 5.15357
40.04 2.60143
40.08 1.26347
40.12 0.745799
40.16 0.45697
40.2 0.368303
40.24 0.287987
40.28 0.214175
40.32 0.196329
40.36 0.176984
40.4 0.138607
40.44 0.145683
40.48 0.133663
40.52 0.125838
40.56 0.112037
40.6 0.0899339
40.64 0.100611
40.68 0.0851108
40.72 0.0718194
40.76 0.0833489
40.8 0.0524793
40.84 0.074343
40.88 0.0796735
40.92 0.0874279
40.96 0.0811617
41 0.083501
41.04 0.092362
41.08 0.0931314
41.12 0.0893576
41.16 0.0869793
41.2 0.0392278
41.24 0.024676
41.28 0.0413262
41.32 0.0121651
41.36 0.0409469
41.4 0.0413429
41.44 0.0230629
41.48 0.0399878
41.52 0.0524418
41.56 0.0395253
41.6 0.0321183
41.64 0.0155779
41.68 0.029699
41.72 0.032787
41.76 0.0311499
41.8 0.0138042
41.84 0.015624
41.88 0.00333762
41.92 0.0128665
41.96 0.00206873
42 0.00772272
42.04 -0.00297253
42.08 0.0147293
42.12 0.0121803
42.16 0.0132858
42.2 0.00832672
42.24 0.00664946
42.28 0.00117636
42.32 -0.0171213
42.36 0.0153882
42.4 0.00401688
42.44 -0.00123785
42.48 0.0259766
42.52 0.0273366
42.56 0.00970126
42.6 0.00864361
42.64 0.00507161
42.68 -0.00184244
42.72 0.000948742
42.76 0.00855134
42.8 0.00816265
42.84 0.000648812
42.88 0.0154462
42.92 0.00627168
42.96 0.0120901
43 0.0105475
43.04 0.0184577
43.08 -0.00232055
43.12 0.00574976
43.16 0.00462933
43.2 -0.00484835
43.24 0.0339637
43.28 0.0174926
43.32 0.0186115
43.36 0.011568
43.4 0.0115589
43.44 0.00039199
43.48 -0.00366431
43.52 0.012967
43.56 0.0169318
43.6 -0.0127103
43.64 0.018496
43.68 0.00786075
43.72 0.0177811
43.76 0.00677505
43.8 0.0102454
43.84 -0.00523587
43.88 0.00699214
43.92 0.00257143
43.96 0.0266252
44 0.0214517
44.04 0.0163132
44.08 0.0289629
44.12 0.00896071
44.16 0.00290852
44.2 0.00860764
44.24 0.0269302
44.28 0.0112932
44.32 0.00756103
44.36 -0.00695095
44.4 0.0254115
44.44 0.0157485
44.48 0.0165449
44.52 -0.000421254
44.56 0.0236213
44.6 0.0370422
44.64 0.0298971
44.68 0.0283231
44.72 0.0265588
44.76 0.0220952
44.8 0.0214767
44.84 -0.00324951
44.88 0.024675
44.92 0.0238227
44.96 -0.0137964
45 -0.00308451
45.04 -0.00424999
45.08 -0.00241046
45.12 -0.00526347
45.16 0.0136846
45.2 -0.000713058
45.24 -0.00629521
45.28 0.00452871
45.32 0.00340431
45.36 -0.0080346
45.4 0.00930511
45.44 0.00846133
45.48 0.00551442
45.52 -0.00756435
45.56 -0.00602178
45.6 0.00385051
45.64 1.84044e-05
45.68 0.00186133
45.72 0.00810076
45.76 -0.00800945
45.8 0.000938092
45.84 0.00137168
45.88 -0.00319254
45.92 -0.00790879
45.96 -0.00919771
46 0.0143817
46.04 0.000354584
46.08 0.0128647
46.12 0.027918
46.16 0.00671163
46.2 0.0290779
46.24 0.0541149
46.28 0.051008
46.32 0.101327
46.36 0.109561
46.4 0.133487
46.44 0.146678
46.48 0.178574
46.52 0.206897
46.56 0.181181
46.6 0.180402
46.64 0.142627
46.68 0.0948958
46.72 0.087615
46.76 0.0537272
46.8 0.0472124
46.84 0.0205437
46.88 0.0155699
46.92 0.0298724
46.96 0.022779
47 0.0320938
47.04 0.0372643
47.08 0.0327923
47.12 0.0408768
47.16 0.0341928
47.2 0.0473362
47.24 0.0392944
47.28 0.045581
47.32 0.041227
47.36 0.0575061
47.4 0.0389561
47.44 0.0266438
47.48 0.0326553
47.52 0.0268106
47.56 0.0181589
47.6 0.0178144
47.64 0.0190351
47.68 0.00389606
47.72 -0.00405346
47.76 0.0117515
47.8 -0.0178037
47.84 -0.00239064
47.88 -0.000172796
47.92 -0.00121373
47.96 0.00928538
48 0.0298224
48.04 0.0597053
48.08 0.0754464
48.12 0.101827
48.16 0.143932
48.2 0.171532
48.24 0.208526
48.28 0.209092
48.32 0.1903
48.36 0.173835
48.4 0.119397
48.44 0.0657018
48.48 0.0353316
48.52 0.0223681
48.56 0.0143835
48.6 0.00761915
48.64 0.0208417
48.68 0.016329
48.72 0.00389816
48.76 0.0169509
48.8 -0.00206932
48.84 0.00358971
48.88 0.0106832
48.92 -0.00153573
48.96 -0.00185571
49 0.00295217
49.04 -0.00623536
49.08 -0.00835798
49.12 -0.0130832
49.16 -0.0120532
49.2 0.00275506
49.24 0.00336511
49.28 -0.0123283
49.32 -0.00826202
49.36 -0.0134579
49.4 -0.00414114
49.44 -0.00401036
49.48 -0.0010998
49.52 0.0120575
49.56 0.0246615
49.6 0.0282674
49.64 0.0632371
49.68 0.0584971
49.72 0.0763112
49.76 0.0698894
49.8 0.0770764
49.84 0.0578647
49.88 0.0565572
49.92 0.0277743
49.96 0.0314713
50 0.00677132
50.04 0.00914462
50.08 -0.00399782
50.12 -0.000950488
50.16 0.00533666
50.2 -0.00726394
50.24 -0.00119315
50.28 -0.00597714
50.32 0.0021041
50.36 -7.63938e-05
50.4 0.00506352
50.44 0.00374499
50.48 0.00166408
50.52 0.00440917
50.56 -0.00872675
50.6 -0.0168497
50.64 -0.00716961
50.68 0.00245022
50.72 -0.00508625
50.76 -0.000695514
50.8 0.000839723
50.84 -0.00336785
50.88 0.00966419
50.92 0.00122494
50.96 -0.00176902
51 0.000661377
51.04 -0.00654032
51.08 -0.0123322
51.12 -0.000740133
51.16 -0.00293604
51.2 0.000355898
51.24 0.00540026
51.28 0.00137605
51.32 -0.000266404
51.36 -0.000589568
51.4 0.0103178
51.44 0.00437585
51.48 0.00423446
51.52 0.00987996
51.56 0.0123062
51.6 0.0278768
51.64 0.0219201
51.68 0.0313213
51.72 0.0347271
51.76 0.0448265
51.8 0.0438211
51.84 0.0407544
51.88 0.0502483
51.92 0.0468067
51.96 0.0377657
52 0.0434322
52.04 0.0430134
52.08 0.0578041
52.12 0.0560727
52.16 0.063627
52.2 0.0584096
52.24 0.0632095
52.28 0.0485804
52.32 0.0577874
52.36 0.0377648
52.4 0.0416573
52.44 0.0691735
52.48 0.0523947
52.52 0.0841734
52.56 0.0990593
52.6 0.116164
52.64 0.140602
52.68 0.178731
52.72 0.194213
52.76 0.182878
52.8 0.174116
52.84 0.163771
52.88 0.152138
52.92 0.127194
52.96 0.125552
53 0.085738
53.04 0.0744767
53.08 0.0505559
53.12 0.0191838
53.16 0.0310934
53.2 0.0287417
53.24 0.00409935
53.28 0.00349214
53.32 0.0102483
53.36 -0.0103644
53.4 -0.00966565
53.44 2.38166e-05
53.48 -0.0154202
53.52 -0.00473476
53.56 -0.00534617
53.6 -0.00245526
53.64 -0.00734868
53.68 5.99797e-06
53.72 0.00323775
53.76 0.0145994
53.8 0.0107179
53.84 0.032049
53.88 0.0386992
53.92 0.0537882
53.96 0.0511847
54 0.0612533
54.04 0.0653536
54.08 0.078514
54.12 0.0707184
54.16 0.0517889
54.2 0.052288
54.24 0.0608106
54.28 0.0543232
54.32 0.0566827
54.36 0.0508013
54.4 0.0383566
54.44 0.0574075
54.48 0.0333028
54.52 0.0366909
54.56 0.0168224
54.6 0.00463292
54.64 0.0162186
54.68 -0.00236362
54.72 0.00579042
54.76 0.0110336
54.8 0.00280602
54.84 -0.00618659
54.88 -0.00948139
54.92 -0.0111811
54.96 -0.0122643
55 -0.00478244
55.04 0.00113563
55.08 0.00266436
55.12 -0.01318
55.16 -0.00914204
55.2 0.000229966
55.24 0.0173031
55.28 0.000464461
55.32 0.0084573
55.36 0.00809298
55.4 0.0267425
55.44 0.0387873
55.48 0.0601477
55.52 0.0345862
55.56 0.044629
55.6 0.0491176
55.64 0.0359213
55.68 0.0420276
55.72 0.0364024
55.76 0.0325316
55.8 0.0183801
55.84 0.00925898
55.88 0.0040187
55.92 -0.00192595
55.96 -0.00718616
56 -0.00922522
56.04 8.3686e-05
56.08 -0.00771369
56.12 -0.0112439
56.16 -0.00736576
56.2 -0.000271752
56.24 -0.0102276
56.28 -0.00338206
56.32 -0.0028991
56.36 -8.48186e-05
56.4 -0.00838283
56.44 -0.00991699
56.48 -0.000194427
56.52 0.00252834
56.56 -0.00257041
56.6 0.00794178
56.64 0.00376173
56.68 0.0248252
56.72 0.0316991
56.76 0.045668
56.8 0.0678868
56.84 0.0953128
56.88 0.138503
56.92 0.157557
56.96 0.196143
57 0.220822
57.04 0.227332
57.08 0.19599
57.12 0.152049
57.16 0.113807
57.2 0.0894855
57.24 0.0480212
57.28 0.0536051
57.32 0.0168949
57.36 0.00957429
57.4 0.0138469
57.44 -0.000834578
57.48 0.0130379
57.52 0.0111344
57.56 0.00863918
57.6 0.0103549
57.64 0.0145852
57.68 0.00127876
57.72 -0.00972338
57.76 0.00197805
57.8 -0.00569065
57.84 0.0135379
57.88 0.00499799
57.92 -0.00570743
57.96 -0.0013518
58 0.0187216
58.04 0.0184133
58.08 0.0183808
58.12 0.0426755
58.16 0.048682
58.2 0.0619601
58.24 0.0892216
58.28 0.0954599
58.32 0.111308
58.36 0.110415
58.4 0.097339
58.44 0.0821567
58.48 0.0804391
58.52 0.0758822
58.56 0.0520371
58.6 0.0307747
58.64 0.0362331
58.68 0.0250273
58.72 0.00425314
58.76 0.0196329
58.8 0.00672708
58.84 0.00953034
58.88 0.01049
58.92 0.017668
58.96 0.0173929
59 0.0247937
59.04 0.0115286
59.08 0.0186365
59.12 0.0291219
59.16 0.0345328
59.2 0.035142
59.24 0.0365891
59.28 0.0456332
59.32 0.0638521
59.36 0.0844099
59.4 0.0703519
59.44 0.0593634
59.48 0.0672332
59.52 0.0427211
59.56 0.0517925
59.6 0.0472236
59.64 0.0354038
59.68 0.0348252
59.72 0.0306474
59.76 0.0359891
59.8 -0.0128066
59.84 0.0193454
59.88 0.0156992
59.92 0.0229223
59.96 0.0101019
60 0.0193723
60.04 0.00147992
60.08 0.00296486
60.12 0.0048681
60.16 0.0109539
60.2 0.00248876
60.24 0.00125733
60.28 0.0080753
60.32 -0.0077969
60.36 -0.00275075
60.4 0.00778409
60.44 -0.00900042
60.48 -0.00582906
60.52 -0.0022617
60.56 0.00731127
60.6 0.00277224
60.64 -0.00662645
60.68 0.00148904
60.72 0.00479923
60.76 -0.000845731
60.8 -0.00114306
60.84 -0.0103342
60.88 -0.00379299
60.92 0.00252534
60.96 0.00145016
61 0.00861508
61.04 -0.00012325
61.08 0.00555585
61.12 0.00175811
61.16 0.0118242
61.2 0.0101696
61.24 0.0251791
61.28 -0.00110474
61.32 -0.0155829
61.36 0.00857927
61.4 0.0195473
61.44 0.0160753
61.48 0.0116926
61.52 0.0278085
61.56 0.0253137
61.6 0.0215338
61.64 -0.00460147
61.68 0.0121222
61.72 0.000339339
61.76 0.0141876
61.8 0.0054935
61.84 -0.00124567
61.88 0.00399928
61.92 -0.0132938
61.96 -0.0098794
62 0.0095849
62.04 0.0165313
62.08 0.0116779
62.12 0.00409286
62.16 0.0109707
62.2 0.0101199
62.24 -0.00178663
62.28 0.0165194
62.32 0.0131036
62.36 -0.00722407
62.4 -9.09609e-05
62.44 0.0175959
62.48 0.0212618
62.52 0.0255962
62.56 0.0242913
62.6 0.046358
62.64 0.0347253
62.68 0.0284414
62.72 0.0298899
62.76 0.0256252
62.8 0.0102451
62.84 0.00749675
62.88 0.0125689
62.92 0.00866041
62.96 0.00729061
63 0.0158029
63.04 -0.0157458
63.08 0.00537389
63.12 0.00774021
63.16 0.00174167
63.2 0.00645953
63.24 0.00148798
63.28 0.0202316
63.32 0.0136421
63.36 0.015869
63.4 0.0275085
63.44 0.0419145
63.48 0.0201956
63.52 0.0528317
63.56 0.0581263
63.6 0.0706623
63.64 0.0617029
63.68 0.0948746
63.72 0.107175
63.76 0.148047
63.8 0.185532
63.84 0.236947
63.88 0.280956
63.92 0.334329
63.96 0.378165
64 0.484536
64.04 0.488627
64.08 0.56086
64.12 0.607793
64.16 0.561273
64.2 0.546477
64.24 0.480473
64.28 0.39875
64.32 0.304402
64.36 0.228069
64.4 0.145968
64.44 0.104176
64.48 0.0820758
64.52 0.0451565
64.56 0.0293611
64.6 0.0185384
64.64 0.0208961
64.68 0.0116527
64.72 0.00352771
64.76 0.0061104
64.8 -0.0033212
64.84 0.00974533
64.88 0.0181075
64.92 0.00560719
64.96 -0.00182012
65 -0.00349125
65.04 -0.000843457
65.08 0.00662762
65.12 0.00122207
65.16 0.00523751
65.2 0.00273622
65.24 0.00586285
65.28 0.00847785
65.32 0.0123356
65.36 0.00613147
65.4 0.00821234
65.44 -0.0143468
65.48 -0.010437
65.52 0.0210994
65.56 0.0184503
65.6 0.014305
65.64 0.0276278
65.68 0.0422886
65.72 0.0479969
65.76 0.067444
65.8 0.0930028
65.84 0.120871
65.88 0.156294
65.92 0.186873
65.96 0.239906
66 0.249532
66.04 0.234091
66.08 0.249904
66.12 0.211959
66.16 0.198383
66.2 0.16584
66.24 0.137704
66.28 0.12286
66.32 0.0967287
66.36 0.072869
66.4 0.0781789
66.44 0.0424464
66.48 0.0294529
66.52 0.00907748
66.56 0.0138515
66.6 -0.000453203
66.64 -0.000685131
66.68 -0.000354253
66.72 -0.0111683
66.76 -0.0103979
66.8 -0.00457018
66.84 -0.0127097
66.88 -0.00649435
66.92 -0.00911955
66.96 0.000383048
67 -0.00587157
67.04 0.00804502
67.08 0.0199193
67.12 0.0381604
67.16 0.0330581
67.2 0.0354224
67.24 0.0584499
67.28 0.0725526
67.32 0.0828451
67.36 0.0918675
67.4 0.086083
67.44 0.117538
67.48 0.0922488
67.52 0.0908461
67.56 0.113319
67.6 0.093797
67.64 0.0845392
67.68 0.096986
67.72 0.0959339
67.76 0.0893033
67.8 0.0757758
67.84 0.0671955
67.88 0.0785259
67.92 0.057367
67.96 0.041299
68 0.0348107
68.04 0.0256412
68.08 0.0186488
68.12 0.00763775
68.16 0.00121961
68.2 -0.0160945
68.24 -0.0110042
68.28 0.00128353
68.32 -0.00739349
68.36 -0.0149909
68.38 -0.0163576