File: data/xrd/xy/2019-05-30T15_13_14.483373+00_00_LBL_F11.xy
'Id: "" Comment: "Integrate frame EtNH3I_iPropyl_07_003.gfrmwith cursor Wedge Cursor #1" Operator: "UC Berkeley" Anode: "Co" Scantype: "TwoTheta" TimePerStep: "300"
14.86 -0.0364104
14.895 0.00577168
14.93 -0.0208354
14.965 0.0188283
15 0.0120919
15.035 0.00493082
15.07 0.0655851
15.105 0.0416982
15.14 -0.00526711
15.175 0.0476928
15.21 0.118912
15.245 0.0638011
15.28 0.0939074
15.315 0.0657375
15.35 0.0296631
15.385 0.06153
15.42 0.0670996
15.455 0.0672298
15.49 0.0235411
15.525 0.0455555
15.56 0.0239144
15.595 0.0392357
15.63 0.0912054
15.665 0.0220376
15.7 0.0748911
15.735 0.0826977
15.77 0.0738057
15.805 0.0754698
15.84 0.0851852
15.875 0.0489871
15.91 0.0952099
15.945 0.0114284
15.98 0.129751
16.015 0.019277
16.05 0.0712812
16.085 0.0720689
16.12 0.0591635
16.155 0.0342341
16.19 0.0745099
16.225 0.0911142
16.26 0.0614103
16.295 0.0452491
16.33 0.112162
16.365 0.0773131
16.4 -0.0222276
16.435 0.0793813
16.47 0.0322714
16.505 0.0617911
16.54 0.0776575
16.575 0.0653352
16.61 0.0241905
16.645 0.0870156
16.68 0.0663579
16.715 0.033102
16.75 0.045135
16.785 0.0674443
16.82 0.0705075
16.855 0.0768712
16.89 0.017391
16.925 0.0542769
16.96 0.0429244
16.995 0.050648
17.03 0.0425498
17.065 0.041854
17.1 0.0149942
17.135 0.0752221
17.17 0.0621291
17.205 0.0771835
17.24 0.0448523
17.275 0.015871
17.31 0.0796865
17.345 0.028386
17.38 0.0225805
17.415 0.0145646
17.45 0.0532301
17.485 0.0709082
17.52 0.00809125
17.555 0.0612226
17.59 0.0763349
17.625 0.0729223
17.66 0.0343683
17.695 0.0562685
17.73 0.0597368
17.765 0.104405
17.8 0.0287488
17.835 0.0354566
17.87 0.0899828
17.905 0.0524979
17.94 0.0413506
17.975 0.0454384
18.01 0.0632373
18.045 0.020773
18.08 0.0250486
18.115 0.0962879
18.15 -0.0193691
18.185 0.0530346
18.22 0.0273089
18.255 0.0562233
18.29 0.00670212
18.325 0.101829
18.36 0.0421858
18.395 0.0539091
18.43 0.0252225
18.465 0.0814636
18.5 0.0464465
18.535 0.0475562
18.57 0.0533315
18.605 0.0789406
18.64 0.0599855
18.675 0.0590915
18.71 0.0139013
18.745 0.0535217
18.78 0.0503233
18.815 0.0100049
18.85 0.0516674
18.885 0.0565302
18.92 0.0487054
18.955 0.0534831
18.99 0.0483434
19.025 0.049981
19.06 0.0448783
19.095 0.0749446
19.13 0.0673318
19.165 0.0415254
19.2 0.0447453
19.235 0.0307761
19.27 0.0655694
19.305 0.0588376
19.34 0.0419498
19.375 0.0940429
19.41 0.0477338
19.445 0.016818
19.48 0.0367196
19.515 0.0444293
19.55 0.0481784
19.585 0.0290784
19.62 0.0683527
19.655 0.0223466
19.69 -0.00349747
19.725 0.0695234
19.76 0.0667766
19.795 -0.00611208
19.83 0.0325271
19.865 0.0433126
19.9 0.0126427
19.935 0.0372094
19.97 0.015282
20.005 0.0297004
20.04 0.0406144
20.075 0.0159898
20.11 0.0207309
20.145 0.051674
20.18 0.056282
20.215 -0.00262862
20.25 0.069354
20.285 0.0495881
20.32 0.0669422
20.355 -0.0283249
20.39 0.0580185
20.425 0.0353011
20.46 0.0387847
20.495 0.0231864
20.53 0.00403689
20.565 0.00316011
20.6 0.0133913
20.635 0.01847
20.67 0.0521481
20.705 0.00180874
20.74 0.0389505
20.775 0.0576176
20.81 -0.0129657
20.845 0.047883
20.88 0.0457255
20.915 -0.00356658
20.95 0.0372534
20.985 0.0194921
21.02 -0.00815473
21.055 0.0561696
21.09 0.063993
21.125 0.0290517
21.16 0.0701372
21.195 0.0268535
21.23 0.00174651
21.265 0.0619186
21.3 0.0813333
21.335 0.0913969
21.37 -0.0337172
21.405 0.0221613
21.44 0.0207138
21.475 0.0366928
21.51 0.0598558
21.545 0.0462474
21.58 0.00809941
21.615 0.0323952
21.65 0.0690356
21.685 0.0562612
21.72 0.142817
21.755 0.0959384
21.79 0.0688787
21.825 0.0665913
21.86 0.0615267
21.895 0.0745537
21.93 0.0557176
21.965 0.0672512
22 0.0813971
22.035 0.0512265
22.07 0.0282796
22.105 -0.0156586
22.14 0.0405683
22.175 0.082038
22.21 0.0428813
22.245 0.090161
22.28 0.0406974
22.315 0.0346756
22.35 0.0511085
22.385 0.0244893
22.42 0.0271666
22.455 0.0809211
22.49 0.0290609
22.525 0.0420255
22.56 0.0341343
22.595 0.036833
22.63 0.00294263
22.665 0.0596232
22.7 0.0317253
22.735 0.0193631
22.77 0.100246
22.805 0.0603838
22.84 0.040908
22.875 0.0765967
22.91 0.0605322
22.945 0.0512861
22.98 0.130145
23.015 0.0749698
23.05 0.0375798
23.085 0.0666039
23.12 0.0753066
23.155 0.0344983
23.19 0.0859908
23.225 0.0535337
23.26 0.0129255
23.295 0.0976811
23.33 0.0625445
23.365 0.093487
23.4 0.0694011
23.435 0.0502683
23.47 0.0739706
23.505 0.0161314
23.54 0.0350285
23.575 0.0486547
23.61 0.00790598
23.645 0.0124756
23.68 0.0294896
23.715 0.0357668
23.75 0.0208746
23.785 0.0353881
23.82 0.0376096
23.855 0.00532184
23.89 0.0101118
23.925 0.000435993
23.96 0.0321168
23.995 0.0191884
24.03 0.0353702
24.065 0.030778
24.1 0.0192034
24.135 0.0227735
24.17 -0.0129169
24.205 -0.00992258
24.24 0.0217694
24.275 0.0276358
24.31 -0.0112406
24.345 0.0420998
24.38 0.0162543
24.415 0.00320321
24.45 0.00880171
24.485 0.0381388
24.52 -0.0130037
24.555 0.0462503
24.59 -0.00515388
24.625 0.0317263
24.66 0.0339561
24.695 0.0368805
24.73 0.0290702
24.765 0.0418359
24.8 0.0109288
24.835 0.0271236
24.87 -0.00299827
24.905 0.0444392
24.94 0.0558858
24.975 0.0902997
25.01 0.0965175
25.045 0.171448
25.08 0.142582
25.115 0.254235
25.15 0.328792
25.185 0.326778
25.22 0.378127
25.255 0.446926
25.29 0.358889
25.325 0.309375
25.36 0.331378
25.395 0.229499
25.43 0.205212
25.465 0.162438
25.5 0.10361
25.535 0.102844
25.57 0.0920487
25.605 0.080171
25.64 0.0973629
25.675 0.038613
25.71 0.0956644
25.745 0.0790615
25.78 0.0655286
25.815 0.0387442
25.85 0.0257599
25.885 -0.00982755
25.92 0.000805807
25.955 0.0217342
25.99 0.0187758
26.025 0.00439255
26.06 0.0397909
26.095 0.0103295
26.13 0.0485752
26.165 0.0291134
26.2 0.0385414
26.235 0.0158372
26.27 0.0476268
26.305 -0.00755373
26.34 0.036849
26.375 0.0462396
26.41 0.064725
26.445 0.0637951
26.48 0.0295315
26.515 0.023355
26.55 0.014334
26.585 -0.000560789
26.62 0.0191241
26.655 0.0432657
26.69 0.0441294
26.725 0.0318194
26.76 -0.0085725
26.795 0.0194238
26.83 -0.00384344
26.865 -0.0331536
26.9 0.0623733
26.935 -0.000751311
26.97 0.0430933
27.005 0.0275427
27.04 -0.00871151
27.075 0.0949187
27.11 0.0282357
27.145 0.0338299
27.18 0.0440826
27.215 0.0774554
27.25 0.0391148
27.285 0.126908
27.32 0.110611
27.355 0.105345
27.39 0.144453
27.425 0.143875
27.46 0.15219
27.495 0.127138
27.53 0.0574475
27.565 0.0972642
27.6 0.0712026
27.635 0.11206
27.67 0.14365
27.705 0.171354
27.74 0.158584
27.775 0.182791
27.81 0.20605
27.845 0.236812
27.88 0.21733
27.915 0.210441
27.95 0.218846
27.985 0.227631
28.02 0.151468
28.055 0.188867
28.09 0.167731
28.125 0.115966
28.16 0.14909
28.195 0.141437
28.23 0.109407
28.265 0.162339
28.3 0.0985785
28.335 0.0917785
28.37 0.0750677
28.405 0.0954475
28.44 0.0909898
28.475 0.0778189
28.51 0.0850993
28.545 0.0684579
28.58 0.0741486
28.615 0.0582586
28.65 0.0468531
28.685 0.0717435
28.72 0.0977929
28.755 0.109245
28.79 0.109568
28.825 0.124524
28.86 0.155323
28.895 0.210935
28.93 0.225867
28.965 0.224637
29 0.252299
29.035 0.276234
29.07 0.242769
29.105 0.198261
29.14 0.225486
29.175 0.221975
29.21 0.201158
29.245 0.216252
29.28 0.185112
29.315 0.176074
29.35 0.215258
29.385 0.144751
29.42 0.156989
29.455 0.168231
29.49 0.131436
29.525 0.0607089
29.56 0.0905779
29.595 0.0714546
29.63 0.120897
29.665 0.0732456
29.7 0.0249328
29.735 0.0639273
29.77 0.0634077
29.805 0.084329
29.84 0.0294814
29.875 0.0602003
29.91 0.0625443
29.945 0.0977241
29.98 0.0836541
30.015 0.0424947
30.05 0.0425578
30.085 0.0778065
30.12 0.103554
30.155 0.0891309
30.19 0.0908232
30.225 0.0606434
30.26 0.0775854
30.295 0.120274
30.33 0.148379
30.365 0.157693
30.4 0.185454
30.435 0.246001
30.47 0.272449
30.505 0.334261
30.54 0.435414
30.575 0.475466
30.61 0.51841
30.645 0.601436
30.68 0.73678
30.715 0.773029
30.75 0.892198
30.785 0.997923
30.82 0.957701
30.855 1.02316
30.89 0.919708
30.925 0.946484
30.96 0.844606
30.995 0.726331
31.03 0.688496
31.065 0.57674
31.1 0.478217
31.135 0.418122
31.17 0.36597
31.205 0.310124
31.24 0.283394
31.275 0.203311
31.31 0.181599
31.345 0.196178
31.38 0.105508
31.415 0.159076
31.45 0.0902181
31.485 0.0903026
31.52 0.0834968
31.555 0.0689336
31.59 0.089227
31.625 0.0406229
31.66 0.0608958
31.695 0.0274122
31.73 0.00603404
31.765 0.0377215
31.8 0.0466215
31.835 0.0575842
31.87 0.0362645
31.905 0.0282899
31.94 0.0148464
31.975 -0.000597751
32.01 0.0149358
32.045 0.0468727
32.08 0.013577
32.115 0.0256362
32.15 0.0829507
32.185 0.101366
32.22 0.0941184
32.255 0.110851
32.29 0.116855
32.325 0.109989
32.36 0.147298
32.395 0.0985121
32.43 0.139591
32.465 0.111988
32.5 0.0913282
32.535 0.100902
32.57 0.0692066
32.605 0.080759
32.64 0.0448583
32.675 0.0485948
32.71 0.0128314
32.745 0.0128334
32.78 0.0093826
32.815 0.00393764
32.85 0.013124
32.885 0.0240829
32.92 -0.0218888
32.955 0.0160435
32.99 0.00154096
33.025 0.0115819
33.06 -0.0335847
33.095 0.0143048
33.13 0.0266297
33.165 0.00295451
33.2 0.0193017
33.235 -0.0205062
33.27 0.0240498
33.305 0.0215657
33.34 0.000143459
33.375 0.0509137
33.41 0.0335427
33.445 0.00320635
33.48 0.0175452
33.515 0.0385784
33.55 0.0381989
33.585 0.036737
33.62 0.0395217
33.655 0.0664015
33.69 0.039872
33.725 0.0553192
33.76 0.0557383
33.795 0.0552588
33.83 0.064235
33.865 0.0757547
33.9 0.0541526
33.935 0.051105
33.97 0.0368215
34.005 0.0615149
34.04 0.0547583
34.075 0.0420569
34.11 0.0551864
34.145 0.059852
34.18 0.0488773
34.215 0.06356
34.25 0.0850672
34.285 0.0598008
34.32 0.0691606
34.355 0.0734338
34.39 0.0543479
34.425 0.0522492
34.46 0.0503434
34.495 0.0443188
34.53 0.0622152
34.565 0.0478656
34.6 0.0222612
34.635 0.0399011
34.67 0.0679731
34.705 0.0634293
34.74 0.0689757
34.775 0.0906251
34.81 0.062
34.845 0.0918899
34.88 0.0754587
34.915 0.0762727
34.95 0.100645
34.985 0.0993792
35.02 0.0919219
35.055 0.106771
35.09 0.103773
35.125 0.103091
35.16 0.0801051
35.195 0.105826
35.23 0.124894
35.265 0.113963
35.3 0.133013
35.335 0.15917
35.37 0.18512
35.405 0.210244
35.44 0.256743
35.475 0.246986
35.51 0.298475
35.545 0.323649
35.58 0.37802
35.615 0.352245
35.65 0.375387
35.685 0.333837
35.72 0.307396
35.755 0.245051
35.79 0.263409
35.825 0.211924
35.86 0.229523
35.895 0.202278
35.93 0.17643
35.965 0.150057
36 0.127932
36.035 0.132
36.07 0.116542
36.105 0.108247
36.14 0.0955592
36.175 0.0895359
36.21 0.0776406
36.245 0.0652543
36.28 0.060923
36.315 0.05513
36.35 0.0416793
36.385 0.0578428
36.42 0.0469128
36.455 0.0517973
36.49 0.0545206
36.525 0.0653072
36.56 0.0526969
36.595 0.0427413
36.63 0.0502401
36.665 0.0507629
36.7 0.077464
36.735 0.0669312
36.77 0.0859098
36.805 0.107316
36.84 0.0757595
36.875 0.0676126
36.91 0.0654777
36.945 0.0839326
36.98 0.0922798
37.015 0.0856365
37.05 0.092378
37.085 0.108285
37.12 0.0835864
37.155 0.0925597
37.19 0.0822245
37.225 0.103526
37.26 0.0703609
37.295 0.0757603
37.33 0.0383738
37.365 0.0553853
37.4 0.0601042
37.435 0.0364528
37.47 0.0960939
37.505 0.0223723
37.54 0.0306273
37.575 0.0215349
37.61 0.0544614
37.645 0.0358727
37.68 0.00350197
37.715 0.00797014
37.75 0.0196872
37.785 0.0205572
37.82 0.00100116
37.855 -0.0231056
37.89 0.0119801
37.925 -0.00711123
37.96 -0.00169171
37.995 0.00242429
38.03 -0.00760397
38.065 -0.0045092
38.1 -0.00701656
38.135 -0.0012433
38.17 0.0178251
38.205 -0.00928558
38.24 -0.0130073
38.275 -0.00667137
38.31 -0.00183367
38.345 -0.000569845
38.38 0.0186006
38.415 0.0113232
38.45 0.0026765
38.485 -0.00885885
38.52 -0.0147241
38.555 -0.0231099
38.59 -0.010925
38.625 -0.00405061
38.66 -0.00424267
38.695 0.000116221
38.73 0.033769
38.765 0.0125206
38.8 0.02479
38.835 0.0309322
38.87 0.0308776
38.905 0.0470123
38.94 0.049763
38.975 0.0427164
39.01 0.0439645
39.045 0.0250773
39.08 0.0389323
39.115 0.0422254
39.15 0.00884556
39.185 0.0130107
39.22 0.0272605
39.255 -0.00435384
39.29 0.0296554
39.325 0.010599
39.36 -0.00298893
39.395 -0.0109307
39.43 0.00993864
39.465 0.0186131
39.5 -0.00968612
39.535 0.00174952
39.57 0.0050483
39.605 -0.0109668
39.64 0.0120501
39.675 -0.00520743
39.71 0.00781995
39.745 -0.0109476
39.78 0.00104769
39.815 -0.0091328
39.85 -0.00745381
39.885 0.0117242
39.92 0.00451283
39.955 0.0264814
39.99 0.0228304
40.025 0.0340235
40.06 0.0341345
40.095 0.0538763
40.13 0.0510226
40.165 0.0857743
40.2 0.0896152
40.235 0.0930618
40.27 0.0832655
40.305 0.0744139
40.34 0.0565662
40.375 0.0498733
40.41 0.0567641
40.445 0.063338
40.48 0.058921
40.515 0.0480942
40.55 0.0451024
40.585 0.0419551
40.62 0.0352297
40.655 0.0371937
40.69 0.0269539
40.725 0.047861
40.76 0.0202074
40.795 -0.00470272
40.83 -0.006467
40.865 0.0157636
40.9 0.0113309
40.935 -0.00208741
40.97 0.0210735
41.005 -0.00989906
41.04 0.00969176
41.075 -0.00373043
41.11 -0.00787264
41.145 0.0135543
41.18 -0.0238025
41.215 0.0103393
41.25 0.00964079
41.285 -0.00429165
41.32 -0.00596865
41.355 0.00681504
41.39 -0.0182774
41.425 0.00890634
41.46 -0.0095443
41.495 -0.00343573
41.53 -0.00894165
41.565 -0.0143006
41.6 -0.0199509
41.635 -0.0215853
41.67 -0.00937555
41.705 -0.0100712
41.74 -0.000966566
41.775 -0.00450332
41.81 0.0054504
41.845 0.0183667
41.88 -0.00238137
41.915 -0.0120981
41.95 -0.00509651
41.985 -0.0204299
42.02 -0.0193552
42.055 -0.00536663
42.09 0.00147617
42.125 -0.0271214
42.16 0.0163213
42.195 -0.002684
42.23 -0.0197931
42.265 -0.00381897
42.3 -0.000643844
42.335 0.0220312
42.37 -0.0074801
42.405 0.00265828
42.44 0.0248442
42.475 0.0194544
42.51 0.0344536
42.545 0.0273102
42.58 0.0201507
42.615 0.0243306
42.65 0.0317384
42.685 0.0410332
42.72 0.0423785
42.755 0.013039
42.79 0.0283834
42.825 0.0432394
42.86 0.033957
42.895 0.0668607
42.93 0.043317
42.965 0.0605985
43 0.0660587
43.035 0.0986596
43.07 0.133514
43.105 0.0928127
43.14 0.183495
43.175 0.198074
43.21 0.243279
43.245 0.327544
43.28 0.414833
43.315 0.548694
43.35 0.595807
43.385 0.7263
43.42 0.806147
43.455 0.871235
43.49 0.907697
43.525 0.944134
43.56 0.966169
43.595 0.901072
43.63 0.803626
43.665 0.691026
43.7 0.629639
43.735 0.493129
43.77 0.444483
43.805 0.359627
43.84 0.267151
43.875 0.264154
43.91 0.190303
43.945 0.203245
43.98 0.158742
44.015 0.131769
44.05 0.112326
44.085 0.145175
44.12 0.151075
44.155 0.122175
44.19 0.108096
44.225 0.138807
44.26 0.121292
44.295 0.092216
44.33 0.106117
44.365 0.0862649
44.4 0.126886
44.435 0.0976711
44.47 0.0620662
44.505 0.0643166
44.54 0.0365091
44.575 0.0718001
44.61 0.0164618
44.645 0.0592661
44.68 0.0326383
44.715 0.0413603
44.75 0.0620477
44.785 0.00454882
44.82 0.00257121
44.855 0.02046
44.89 0.0194839
44.925 0.020713
44.96 -0.0183582
44.995 -0.00156901
45.03 0.03313
45.065 -0.00859727
45.1 0.01233
45.135 0.029079
45.17 -0.0141327
45.205 -0.0105655
45.24 0.0188811
45.275 0.0109421
45.31 -0.0108255
45.345 0.00445744
45.38 -0.0070904
45.415 0.00317549
45.45 0.0108392
45.485 0.00323087
45.52 -0.00630643
45.555 -0.00575964
45.59 0.0156824
45.625 0.0135644
45.66 -0.00338338
45.695 -0.00367389
45.73 0.0244233
45.765 0.0173191
45.8 0.0135048
45.835 0.0609141
45.87 0.0784016
45.905 0.0751716
45.94 0.0566974
45.975 0.11515
46.01 0.150536
46.045 0.202696
46.08 0.228353
46.115 0.255204
46.15 0.252664
46.185 0.26214
46.22 0.247993
46.255 0.221286
46.29 0.229844
46.325 0.193844
46.36 0.159602
46.395 0.15782
46.43 0.135085
46.465 0.0779033
46.5 0.111487
46.535 0.0879063
46.57 0.110297
46.605 0.0689797
46.64 0.0531709
46.675 0.0699057
46.71 0.079109
46.745 0.0839446
46.78 0.107582
46.815 0.103554
46.85 0.0898898
46.885 0.103349
46.92 0.140195
46.955 0.121918
46.99 0.151422
47.025 0.187091
47.06 0.21683
47.095 0.195837
47.13 0.226017
47.165 0.21371
47.2 0.236484
47.235 0.214911
47.27 0.228839
47.305 0.222272
47.34 0.205674
47.375 0.188673
47.41 0.184084
47.445 0.190909
47.48 0.183091
47.515 0.212494
47.55 0.223329
47.585 0.223016
47.62 0.235323
47.655 0.201052
47.69 0.242381
47.725 0.224494
47.76 0.233322
47.795 0.218427
47.83 0.197612
47.865 0.227909
47.9 0.208875
47.935 0.193054
47.97 0.170675
48.005 0.186806
48.04 0.13827
48.075 0.165576
48.11 0.136573
48.145 0.152942
48.18 0.123127
48.215 0.11896
48.25 0.124334
48.285 0.108198
48.32 0.0797509
48.355 0.0676495
48.39 0.0736115
48.425 0.0542566
48.46 0.0557734
48.495 0.0434457
48.53 0.0463168
48.565 0.0315582
48.6 0.0553301
48.635 0.034483
48.67 0.0250214
48.705 0.0124255
48.74 0.0245608
48.775 0.025451
48.81 0.0123395
48.845 0.0093487
48.88 0.0278355
48.915 0.031319
48.95 0.0366294
48.985 0.0235731
49.02 0.0167515
49.055 0.0354238
49.09 0.0130015
49.125 0.00725154
49.16 0.0217972
49.195 0.0205285
49.23 0.0167204
49.265 0.0362551
49.3 0.0145766
49.335 0.00968452
49.37 0.0382067
49.405 0.00989074
49.44 0.0160359
49.475 -0.00178139
49.51 0.000595564
49.545 -0.00375696
49.58 -0.00208954
49.615 -0.0030817
49.65 -0.0077819
49.685 -0.0111979
49.72 -0.000246224
49.755 -0.0120121
49.79 -0.00662018
49.825 -0.0244703
49.86 -0.00169157
49.895 -0.0113212
49.93 -0.00845123
49.965 -0.000922528
50 -0.0221324
50.035 -0.013913
50.07 -0.00567621
50.105 -0.0247743
50.14 -0.00360695
50.175 -0.0084162
50.21 -0.00726021
50.245 0.00261273
50.28 -0.00333173
50.315 0.0154996
50.35 0.00349918
50.385 0.00402349
50.42 0.00234465
50.455 0.00263784
50.49 0.0251865
50.525 0.0258758
50.56 0.0199957
50.595 0.0496483
50.63 0.0501608
50.665 0.0488861
50.7 0.0802961
50.735 0.0861928
50.77 0.11397
50.805 0.115984
50.84 0.13594
50.875 0.128198
50.91 0.158922
50.945 0.156612
50.98 0.156381
51.015 0.150821
51.05 0.154714
51.085 0.167395
51.12 0.164231
51.155 0.133724
51.19 0.137647
51.225 0.102082
51.26 0.106922
51.295 0.102234
51.33 0.098836
51.365 0.0778055
51.4 0.0750335
51.435 0.0566421
51.47 0.0689398
51.505 0.0568027
51.54 0.0292716
51.575 0.0295616
51.61 0.0238285
51.645 0.0312375
51.68 0.0196922
51.715 0.0053314
51.75 0.023965
51.785 0.00204118
51.82 0.00279458
51.855 0.00665628
51.89 0.0029532
51.925 0.0157774
51.96 0.0116267
51.995 -0.00206675
52.03 0.0165923
52.065 -0.00882658
52.1 0.00071185
52.135 0.0129563
52.17 -0.013032
52.205 -0.0192433
52.24 0.00442623
52.275 -0.0131487
52.31 -0.00319414
52.345 0.0113347
52.38 -0.000864203
52.415 -0.00276866
52.45 0.0263369
52.485 0.0148345
52.52 0.0124302
52.555 0.0234664
52.59 0.0195922
52.625 0.0201502
52.66 0.0425168
52.695 0.0348664
52.73 0.0441652
52.765 0.0406512
52.8 0.0411825
52.835 0.0403933
52.87 0.0588164
52.905 0.0641537
52.94 0.0343452
52.975 0.0285109
53.01 0.0309678
53.045 0.036902
53.08 0.0212711
53.115 0.00505287
53.15 0.00526057
53.185 0.0146855
53.22 0.0111165
53.255 0.00431889
53.29 -0.00714316
53.325 0.011253
53.36 -0.00323783
53.395 0.00139315
53.43 -0.00485169
53.465 -0.0107627
53.5 0.0105523
53.535 -0.00131646
53.57 -0.0198955
53.605 0.00597404
53.64 0.0033328
53.675 -0.00447743
53.71 -0.008197
53.745 -0.00431646
53.78 -0.00306963
53.815 0.00185795
53.85 0.00535948
53.885 -0.00304475
53.92 -0.0070843
53.955 0.000285568
53.99 0.0193039
54.025 0.0206134
54.06 0.0128561
54.095 0.0211611
54.13 0.0214974
54.165 0.00415651
54.2 0.0310572
54.235 0.0332711
54.27 0.0509787
54.305 0.0225864
54.34 0.0581144
54.375 0.0272927
54.41 0.0303221
54.445 0.0470243
54.48 0.052927
54.515 0.051608
54.55 0.0440626
54.585 0.0566365
54.62 0.0613877
54.655 0.0566417
54.69 0.0411536
54.725 0.0719744
54.76 0.0547966
54.795 0.0281507
54.83 0.0435724
54.865 0.0673349
54.9 0.0239425
54.935 0.0496216
54.97 0.0467541
55.005 0.0313599
55.04 0.0362893
55.075 0.0341977
55.11 0.0313255
55.145 0.0167665
55.18 0.0123753
55.215 0.0218346
55.25 0.028765
55.285 0.0341457
55.32 0.0115266
55.355 0.0352257
55.39 0.0252693
55.425 0.0195573
55.46 0.0223774
55.495 0.0346205
55.53 0.0274003
55.565 0.0395212
55.6 0.0501602
55.635 0.0289302
55.67 0.0372876
55.705 0.018765
55.74 0.0353922
55.775 0.0494574
55.81 0.0238761
55.845 0.0301279
55.88 0.01518
55.915 0.0476694
55.95 0.0121848
55.985 -0.00256141
56.02 0.0185211
56.055 0.00422272
56.09 0.00308839
56.125 -0.0110656
56.16 -0.00500386
56.195 -0.00105934
56.23 0.0154646
56.265 0.00439894
56.3 0.00123621
56.335 0.00315827
56.37 -0.000927232
56.405 -0.00578173
56.44 0.0113607
56.475 0.0145164
56.51 -0.00274959
56.545 0.00325159
56.58 0.017043
56.615 0.00165307
56.65 0.0193426
56.685 0.014182
56.72 0.010763
56.755 -0.00618637
56.79 0.0327086
56.825 0.0286092
56.86 0.0362058
56.895 0.0386811
56.93 0.0428978
56.965 0.0661475
57 0.0639717
57.035 0.0632887
57.07 0.0814598
57.105 0.0846569
57.14 0.104068
57.175 0.0959802
57.21 0.136866
57.245 0.139896
57.28 0.154008
57.315 0.170621
57.35 0.155575
57.385 0.166257
57.42 0.19581
57.455 0.186602
57.49 0.183871
57.525 0.162222
57.56 0.177536
57.595 0.164263
57.63 0.170805
57.665 0.162269
57.7 0.140475
57.735 0.118196
57.77 0.129565
57.805 0.112762
57.84 0.107032
57.875 0.0951801
57.91 0.0923241
57.945 0.0621854
57.98 0.0422077
58.015 0.0622215
58.05 0.0521278
58.085 0.0414219
58.12 0.04049
58.155 0.0206633
58.19 0.0451882
58.225 0.032364
58.26 0.019827
58.295 0.0332458
58.33 0.0280353
58.365 0.0220838
58.4 0.0233982
58.435 0.044836
58.47 0.0191469
58.505 0.042822
58.54 0.0239257
58.575 0.0287345
58.61 0.0220001
58.645 0.0404089
58.68 0.0222609
58.715 0.0328786
58.75 0.000480319
58.785 0.0265324
58.82 0.0461194
58.855 0.0358863
58.89 0.0462289
58.925 0.0333702
58.96 0.0377091
58.995 0.0287242
59.03 0.0278902
59.065 -0.000364394
59.1 0.0132991
59.135 0.0209169
59.17 0.003765
59.205 0.028265
59.24 0.0106934
59.275 0.00828369
59.31 0.00102068
59.345 0.0120489
59.38 0.018977
59.415 0.0200267
59.45 -0.00741403
59.485 -0.00803092
59.52 -0.0127845
59.555 0.0012528
59.59 -0.0163079
59.625 -0.0140217
59.66 0.0103984
59.695 0.000767562
59.73 0.00535927
59.765 0.00957935
59.8 -0.0176573
59.835 -0.00729392
59.87 -0.00103437
59.905 -0.00489818
59.94 -0.00283264
59.975 -0.011138
60.01 -0.00230199
60.045 -0.0221519
60.08 -0.00861058
60.115 0.00283297
60.15 -0.000298935
60.185 -0.00705723
60.22 0.0126367
60.255 0.00211653
60.29 0.00770086
60.325 -0.00824924
60.36 0.0246204
60.395 -0.00371957
60.43 0.0129409
60.465 -0.0190747
60.5 -0.00656191
60.535 -0.0188313
60.57 -0.00598142
60.605 0.0021848
60.64 -0.010187
60.675 -0.0206262
60.71 0.0200569
60.745 0.00536421
60.78 -0.0106968
60.815 0.00624959
60.85 0.0131981
60.885 0.0184017
60.92 0.0109782
60.955 0.00770786
60.99 0.0124101
61.025 0.00197067
61.06 0.0127607
61.095 -0.00449233
61.13 0.0138913
61.165 -0.00940997
61.2 -0.00130791
61.235 0.0159074
61.27 -0.0133952
61.305 0.00457748
61.34 0.00730339
61.375 0.00742309
61.41 0.00662373
61.445 -0.00662023
61.48 0.0146111
61.515 0.022851
61.55 0.00475736
61.585 0.0227207
61.62 0.0323401
61.655 -0.00967453
61.69 -0.00192249
61.725 0.0180202
61.76 0.0165843
61.795 0.0218097
61.83 0.0349223
61.865 -0.000113783
61.9 -0.000395204
61.935 -0.00274674
61.97 0.0161681
62.005 0.0217473
62.04 0.0275301
62.075 0.0155617
62.11 0.0238264
62.145 0.0176446
62.18 0.00695217
62.215 0.024441
62.25 0.0147476
62.285 0.0185615
62.32 0.0191537
62.355 0.0078619
62.39 0.0131072
62.425 0.00621179
62.46 0.0110049
62.495 -0.0033551
62.53 0.0148151
62.565 0.00881447
62.6 0.0108396
62.635 0.0141485
62.67 0.0050083
62.705 -0.0037962
62.74 0.00989037
62.775 0.0393755
62.81 0.0042329
62.845 0.00334883
62.88 0.016525
62.915 -0.0010151
62.95 0.0247934
62.985 0.0240804
63.02 0.0321554
63.055 0.0428229
63.09 0.0166381
63.125 0.0151279
63.16 0.0223037
63.195 0.0253058
63.23 0.0343632
63.265 0.0328449
63.3 0.0466951
63.335 0.0158968
63.37 0.0207134
63.405 0.0422341
63.44 0.0276867
63.475 0.0412756
63.51 0.0400952
63.545 0.0150482
63.58 0.0405961
63.615 0.0215611
63.65 0.0368782
63.685 0.0332881
63.72 0.0238836
63.755 0.0210197
63.79 0.00408301
63.825 0.0117598
63.86 0.0220449
63.895 0.0162593
63.93 0.00546493
63.965 -0.00682165
64 0.0152456
64.035 0.00724036
64.07 0.017576
64.105 0.0156522
64.14 0.0139503
64.175 0.0125069
64.21 0.0174672
64.245 -0.01091
64.28 0.00746041
64.315 0.00827546
64.35 0.00596058
64.385 0.000903581
64.42 0.00864755
64.455 0.000630384
64.49 0.0150479
64.525 0.00419002
64.56 0.00286567
64.595 0.0111988
64.63 -0.0234654
64.665 -0.000867208
64.7 0.00761799
64.735 -0.000818898
64.77 -0.00555328
64.805 0.00898728
64.84 0.00349603
64.875 0.00751098
64.91 -0.00596614
64.945 -0.0124804
64.98 0.0126581
65.015 -0.00489202
65.05 0.0103809
65.085 -0.00891241
65.12 0.0113473
65.155 -0.015104
65.19 -0.0137792
65.225 -0.0187974
65.26 -0.00306093
65.295 -0.00614894
65.33 -0.00889126
65.365 -0.00515092
65.4 -0.0118106
65.435 -0.0203985
65.47 -0.0211707
65.505 0.00323811
65.54 -0.00355412
65.575 -0.00329576
65.61 -0.0172544
65.645 -0.0127247
65.68 -0.0104205
65.715 -0.0230426
65.745 -0.0245092