File: data/xrd/xy/2019-05-29T17_22_53.471261+00_00_LBL_A1.xy
'Id: "" Comment: "Integrate frame 060320190_01_001.gfrmwith cursor Wedge Cursor #1" Operator: "UC Berkeley" Anode: "Co" Scantype: "TwoTheta" TimePerStep: "400"
14.475 -0.0314987
14.51 0.0199874
14.545 0.141745
14.58 0.20514
14.615 0.225867
14.65 0.320962
14.685 0.39759
14.72 0.419272
14.755 0.405995
14.79 0.306574
14.825 0.301655
14.86 0.143902
14.895 0.124393
14.93 0.0631296
14.965 0.0738263
15 0.0690432
15.035 0.0466261
15.07 0.0574087
15.105 0.0528585
15.14 0.0910578
15.175 0.10686
15.21 -0.0152369
15.245 0.0912415
15.28 0.0858565
15.315 0.101478
15.35 0.0516081
15.385 0.0711099
15.42 0.0351469
15.455 0.0697112
15.49 0.0479048
15.525 0.0678445
15.56 0.0638126
15.595 0.0754436
15.63 0.0536131
15.665 0.0462302
15.7 0.0735376
15.735 0.0927747
15.77 0.063633
15.805 0.0318305
15.84 0.100779
15.875 0.0935199
15.91 0.0364829
15.945 0.0115871
15.98 0.0706626
16.015 0.0296496
16.05 0.0703842
16.085 0.0253933
16.12 0.0308452
16.155 0.0530122
16.19 0.0279459
16.225 0.0806374
16.26 0.0521924
16.295 0.0667862
16.33 0.075122
16.365 0.0780889
16.4 0.050954
16.435 0.0420453
16.47 0.0680516
16.505 0.0298141
16.54 0.0765682
16.575 0.0832093
16.61 0.0564032
16.645 0.0488296
16.68 0.0851956
16.715 0.0505346
16.75 0.05077
16.785 0.0404989
16.82 0.0776856
16.855 0.0325136
16.89 0.030982
16.925 0.0489824
16.96 0.0309062
16.995 0.0587675
17.03 0.0278236
17.065 0.0697312
17.1 0.0376649
17.135 0.0464476
17.17 0.0450896
17.205 0.0602921
17.24 0.00751127
17.275 0.0346992
17.31 0.0370974
17.345 0.0815236
17.38 0.0371357
17.415 0.0398238
17.45 0.0601731
17.485 0.0701455
17.52 0.0750718
17.555 0.06992
17.59 0.0434617
17.625 0.0340408
17.66 0.00877294
17.695 0.0297607
17.73 0.0235557
17.765 0.0401608
17.8 -0.0191955
17.835 0.0258697
17.87 0.01587
17.905 0.0272725
17.94 0.0358201
17.975 0.0669064
18.01 0.0216097
18.045 0.0820913
18.08 0.0392929
18.115 0.0454639
18.15 0.0239052
18.185 0.020332
18.22 0.0289111
18.255 0.0563927
18.29 0.0302324
18.325 0.0282029
18.36 0.0634631
18.395 0.0404273
18.43 0.0594412
18.465 0.0367452
18.5 0.0254466
18.535 0.0416972
18.57 0.0798477
18.605 0.051087
18.64 0.0597457
18.675 0.0698494
18.71 0.0577246
18.745 0.0995745
18.78 0.0929371
18.815 0.087501
18.85 0.0823301
18.885 0.0689922
18.92 0.0258519
18.955 0.0157547
18.99 0.0543974
19.025 0.0163855
19.06 0.0652087
19.095 0.0196892
19.13 0.0123327
19.165 0.0097105
19.2 0.0273072
19.235 0.0307837
19.27 0.0197244
19.305 0.00748404
19.34 0.0223113
19.375 0.0511775
19.41 0.0289284
19.445 -0.00606863
19.48 0.0356419
19.515 0.0544159
19.55 -0.0125988
19.585 0.0274808
19.62 0.0217354
19.655 0.0116104
19.69 0.0357208
19.725 0.035302
19.76 0.0200105
19.795 0.0203717
19.83 -0.00403116
19.865 -0.0107445
19.9 0.025558
19.935 0.00198322
19.97 0.00866933
20.005 0.00154954
20.04 0.0307388
20.075 0.0447771
20.11 0.0218505
20.145 0.050004
20.18 0.024964
20.215 0.023268
20.25 0.0201005
20.285 0.0541092
20.32 0.0479794
20.355 0.0625754
20.39 0.0686622
20.425 0.0544408
20.46 0.0435117
20.495 0.0159978
20.53 0.0250732
20.565 0.0331805
20.6 0.0553088
20.635 -0.0226869
20.67 0.00624648
20.705 0.0313257
20.74 -0.0245955
20.775 0.0366667
20.81 0.0416658
20.845 0.0412789
20.88 0.0459616
20.915 0.0243132
20.95 0.0345118
20.985 0.0252139
21.02 0.010617
21.055 0.00383321
21.09 -0.00467227
21.125 0.036918
21.16 0.0741922
21.195 0.0709296
21.23 0.042766
21.265 0.0197757
21.3 0.0583183
21.335 0.0304399
21.37 0.085495
21.405 0.0241169
21.44 0.0525622
21.475 0.0376723
21.51 0.0318677
21.545 0.0405429
21.58 0.0247791
21.615 0.0318151
21.65 0.00568421
21.685 0.0127752
21.72 0.054754
21.755 0.0235636
21.79 0.0508821
21.825 0.00596079
21.86 0.0138493
21.895 0.0252942
21.93 0.0312337
21.965 -0.00808948
22 0.0398376
22.035 0.0471196
22.07 0.017555
22.105 0.0324238
22.14 0.0287386
22.175 0.0167868
22.21 0.0300755
22.245 0.0792757
22.28 0.0520857
22.315 -0.011513
22.35 0.0262105
22.385 -0.00027086
22.42 0.000663407
22.455 0.0339966
22.49 0.0487203
22.525 -0.0151226
22.56 0.00271996
22.595 -0.00539929
22.63 0.0378513
22.665 0.0468685
22.7 0.0401339
22.735 0.0149807
22.77 0.00670805
22.805 0.025651
22.84 0.0582497
22.875 0.056809
22.91 0.00840322
22.945 0.0282833
22.98 0.0350856
23.015 0.0376365
23.05 -0.011396
23.085 -0.00432639
23.12 0.0738823
23.155 0.0346156
23.19 0.0228491
23.225 0.106975
23.26 0.0674969
23.295 0.107692
23.33 0.204641
23.365 0.192289
23.4 0.261985
23.435 0.197509
23.47 0.135953
23.505 0.156058
23.54 0.118997
23.575 0.126522
23.61 0.0869242
23.645 0.0326119
23.68 0.0729135
23.715 0.0640586
23.75 0.0269028
23.785 0.0314815
23.82 0.041499
23.855 0.00165143
23.89 -0.00883264
23.925 -0.0109229
23.96 0.00137613
23.995 0.0662526
24.03 0.0367771
24.065 0.0213209
24.1 0.0227129
24.135 0.0277731
24.17 0.0298066
24.205 0.0520062
24.24 0.0447254
24.275 0.0156708
24.31 0.0275166
24.345 0.0220716
24.38 0.0372863
24.415 0.00658621
24.45 0.00420693
24.485 0.0440445
24.52 0.0275286
24.555 0.0221884
24.59 0.0242427
24.625 0.037209
24.66 0.0233914
24.695 0.0184921
24.73 0.0318301
24.765 0.0310463
24.8 0.0091574
24.835 0.00519372
24.87 0.0181533
24.905 0.014414
24.94 0.0417298
24.975 0.0100976
25.01 0.0635638
25.045 0.0223435
25.08 0.00519954
25.115 0.0314201
25.15 0.0457902
25.185 0.0237044
25.22 0.0308327
25.255 0.0220213
25.29 -0.00508228
25.325 0.0351134
25.36 0.042742
25.395 0.0262066
25.43 0.0487731
25.465 0.0202792
25.5 0.0189911
25.535 0.0340354
25.57 0.0287482
25.605 -0.000183278
25.64 0.0140541
25.675 0.0315608
25.71 0.0155829
25.745 0.0352525
25.78 0.0209961
25.815 0.0141105
25.85 0.0209821
25.885 0.00890852
25.92 -0.00953085
25.955 0.0151785
25.99 0.00826016
26.025 0.017444
26.06 0.0241559
26.095 0.0273718
26.13 0.0443048
26.165 0.0158284
26.2 0.030505
26.235 0.0333042
26.27 0.0122797
26.305 0.00119252
26.34 0.0180951
26.375 0.0120816
26.41 0.0190267
26.445 0.019377
26.48 0.0410265
26.515 0.0373599
26.55 0.0151427
26.585 0.0458418
26.62 0.0419506
26.655 0.00973659
26.69 0.0290592
26.725 0.0339979
26.76 0.0451017
26.795 0.0455729
26.83 0.0641316
26.865 0.0575447
26.9 0.0312249
26.935 0.0744134
26.97 0.0456127
27.005 0.0583458
27.04 0.0719904
27.075 0.0391229
27.11 0.0726803
27.145 0.0425868
27.18 0.0835008
27.215 0.104948
27.25 0.170109
27.285 0.245907
27.32 0.250425
27.355 0.311605
27.39 0.283288
27.425 0.268887
27.46 0.169562
27.495 0.144117
27.53 0.0773191
27.565 0.0878573
27.6 0.0616133
27.635 0.0515225
27.67 0.0472132
27.705 0.0235103
27.74 0.0518714
27.775 0.0135261
27.81 0.0368987
27.845 0.046923
27.88 0.064272
27.915 0.0727122
27.95 0.0334573
27.985 0.0246348
28.02 0.0152938
28.055 0.0630412
28.09 0.0526119
28.125 0.0631459
28.16 0.0656577
28.195 0.0866202
28.23 0.0418718
28.265 0.00761641
28.3 0.021558
28.335 0.00350178
28.37 0.0222712
28.405 -0.00239245
28.44 0.0480272
28.475 0.0263021
28.51 0.0426279
28.545 0.0139569
28.58 0.0139922
28.615 0.0393207
28.65 0.0416795
28.685 0.0867833
28.72 0.145238
28.755 0.130431
28.79 0.197975
28.825 0.350821
28.86 0.349585
28.895 0.429418
28.93 0.425833
28.965 0.512184
29 0.754928
29.035 0.931592
29.07 1.30308
29.105 1.54808
29.14 1.42563
29.175 1.24866
29.21 0.992406
29.245 0.699629
29.28 0.618384
29.315 0.456805
29.35 0.387391
29.385 0.232692
29.42 0.20311
29.455 0.15434
29.49 0.140737
29.525 0.145917
29.56 0.178593
29.595 0.224471
29.63 0.258493
29.665 0.272431
29.7 0.275338
29.735 0.209762
29.77 0.105413
29.805 0.105671
29.84 0.0779848
29.875 0.0504181
29.91 0.0890865
29.945 0.0833369
29.98 0.0659118
30.015 0.0851461
30.05 0.204356
30.085 0.296532
30.12 0.432133
30.155 0.549161
30.19 0.542778
30.225 0.450656
30.26 0.338968
30.295 0.211696
30.33 0.134678
30.365 0.0895191
30.4 0.0201363
30.435 0.0192515
30.47 0.0241503
30.505 0.0623404
30.54 0.0506679
30.575 0.049801
30.61 0.0482867
30.645 -0.00965359
30.68 0.0523034
30.715 0.00900288
30.75 0.0425575
30.785 0.0160408
30.82 0.0391554
30.855 0.00821127
30.89 0.00425328
30.925 0.00484437
30.96 0.0453324
30.995 0.00128486
31.03 0.0116465
31.065 0.0135013
31.1 0.035417
31.135 0.0326105
31.17 -0.000822574
31.205 0.0206806
31.24 -0.00498033
31.275 -0.00686068
31.31 0.00110608
31.345 0.0108954
31.38 0.0147053
31.415 -0.00261064
31.45 0.00727064
31.485 0.0277589
31.52 0.015132
31.555 0.0448596
31.59 -0.0066117
31.625 0.024594
31.66 0.00894733
31.695 0.00175413
31.73 0.0239001
31.765 0.0472155
31.8 0.0912944
31.835 0.125567
31.87 0.162314
31.905 0.194641
31.94 0.269583
31.975 0.285733
32.01 0.299954
32.045 0.243507
32.08 0.175097
32.115 0.122385
32.15 0.0717635
32.185 0.0303254
32.22 0.0466688
32.255 -0.00479002
32.29 0.0366929
32.325 0.0152236
32.36 -0.00350125
32.395 0.0370268
32.43 -0.00539966
32.465 0.0245426
32.5 0.0324018
32.535 0.0137372
32.57 0.0379246
32.605 0.0488947
32.64 0.0529154
32.675 0.0670634
32.71 0.0492116
32.745 0.0715007
32.78 0.0401047
32.815 0.0544118
32.85 0.0624179
32.885 0.0527335
32.92 0.0937597
32.955 0.0943264
32.99 0.0903977
33.025 0.0884906
33.06 0.0530148
33.095 0.0553457
33.13 0.0160245
33.165 0.0226825
33.2 -0.00373971
33.235 0.0536276
33.27 0.00552224
33.305 0.0124817
33.34 0.0100817
33.375 0.0177754
33.41 0.0102023
33.445 0.0282406
33.48 0.0322352
33.515 0.0106703
33.55 0.0130032
33.585 0.00764452
33.62 0.0145798
33.655 0.0272521
33.69 0.0187711
33.725 0.0235583
33.76 0.0168639
33.795 0.0177078
33.83 0.024169
33.865 0.0478163
33.9 0.0517803
33.935 0.0559051
33.97 0.0611523
34.005 0.0601061
34.04 0.0514576
34.075 0.0181504
34.11 0.0481457
34.145 0.0249582
34.18 0.00229829
34.215 0.0184608
34.25 0.0158457
34.285 0.0137409
34.32 0.0490804
34.355 0.0169809
34.39 0.0402153
34.425 0.0496491
34.46 0.0740174
34.495 0.0689138
34.53 0.0742361
34.565 0.0581261
34.6 0.0559156
34.635 0.0538038
34.67 0.0355098
34.705 0.0907899
34.74 0.126662
34.775 0.186391
34.81 0.248621
34.845 0.274634
34.88 0.286944
34.915 0.270627
34.95 0.214191
34.985 0.151023
35.02 0.115209
35.055 0.0538285
35.09 0.0206136
35.125 0.0153379
35.16 0.00889445
35.195 0.0191536
35.23 0.0145701
35.265 0.016044
35.3 4.74498e-05
35.335 0.00520411
35.37 0.00889948
35.405 0.0203069
35.44 0.00134348
35.475 0.00283247
35.51 -0.0159467
35.545 -0.00367439
35.58 -0.00536868
35.615 0.0046677
35.65 0.0133847
35.685 0.00609548
35.72 -0.00414456
35.755 0.0153165
35.79 -0.0146333
35.825 0.00129708
35.86 0.0101501
35.895 -0.00959562
35.93 0.00685775
35.965 0.00276586
36 -0.0132765
36.035 0.00848134
36.07 0.0221793
36.105 0.0177441
36.14 0.0272024
36.175 0.0424713
36.21 0.0488543
36.245 0.0233227
36.28 0.011562
36.315 0.0294402
36.35 0.015801
36.385 0.0376438
36.42 0.00321803
36.455 0.0149895
36.49 0.0128605
36.525 0.0124376
36.56 0.00233567
36.595 0.00865975
36.63 0.0116613
36.665 0.047889
36.7 0.0332119
36.735 0.0366935
36.77 0.0530814
36.805 0.0866708
36.84 0.138032
36.875 0.223286
36.91 0.370899
36.945 0.520509
36.98 0.684306
37.015 0.781506
37.05 0.832601
37.085 0.754022
37.12 0.610872
37.155 0.422965
37.19 0.323487
37.225 0.18496
37.26 0.116497
37.295 0.0750081
37.33 0.0366705
37.365 0.0282592
37.4 0.0281115
37.435 0.00994411
37.47 0.0221714
37.505 0.0179612
37.54 0.0278404
37.575 0.0371497
37.61 0.0582189
37.645 0.0518444
37.68 0.0707691
37.715 0.076182
37.75 0.0885751
37.785 0.091547
37.82 0.0558809
37.855 0.0588703
37.89 0.0280662
37.925 0.0171196
37.96 0.00735607
37.995 -0.00239277
38.03 0.00885864
38.065 -0.00204677
38.1 -0.00549283
38.135 -0.00534506
38.17 0.0228109
38.205 -0.0214674
38.24 -0.0185349
38.275 0.00708457
38.31 -0.00329986
38.345 0.00326109
38.38 0.00632787
38.415 -0.00942319
38.45 0.0071392
38.485 -0.0144152
38.52 0.0048796
38.555 0.00222022
38.59 -0.00480891
38.625 0.0161038
38.66 -0.000511034
38.695 -0.0010687
38.73 -0.0175772
38.765 0.00900613
38.8 0.0054057
38.835 -0.0130829
38.87 0.000665036
38.905 0.00101476
38.94 -0.00482387
38.975 -0.0221085
39.01 0.00796738
39.045 -0.00412422
39.08 0.00905728
39.115 0.00876244
39.15 0.0156996
39.185 0.0547249
39.22 0.0550726
39.255 0.0874181
39.29 0.0787716
39.325 0.0908717
39.36 0.063373
39.395 0.0471322
39.43 0.0449642
39.465 0.0419348
39.5 0.033321
39.535 0.013752
39.57 0.0179492
39.605 0.0283778
39.64 0.0538264
39.675 0.0411792
39.71 0.0499521
39.745 0.0892145
39.78 0.146178
39.815 0.236697
39.85 0.387222
39.885 0.572331
39.92 0.740744
39.955 0.818078
39.99 0.857757
40.025 0.753363
40.06 0.585326
40.095 0.445095
40.13 0.283849
40.165 0.163206
40.2 0.0991701
40.235 0.0629327
40.27 0.0591408
40.305 0.0227137
40.34 0.0257678
40.375 0.0123755
40.41 0.0178677
40.445 0.0228393
40.48 0.0318474
40.515 0.0255628
40.55 0.014618
40.585 0.00496074
40.62 0.008223
40.655 0.0101725
40.69 0.0333921
40.725 0.00336681
40.76 0.0339186
40.795 0.0162784
40.83 0.0209147
40.865 0.035172
40.9 0.00317724
40.935 0.0184317
40.97 0.00362466
41.005 -0.0264337
41.04 -0.0209719
41.075 -0.0101037
41.11 -0.01272
41.145 -0.00435641
41.18 -0.000245713
41.215 0.0049279
41.25 0.0112699
41.285 0.0348201
41.32 0.0134673
41.355 0.0254683
41.39 0.0601412
41.425 0.059444
41.46 0.0916252
41.495 0.125519
41.53 0.106326
41.565 0.126181
41.6 0.0888891
41.635 0.0820486
41.67 0.0518418
41.705 0.0360674
41.74 0.0438996
41.775 0.0294422
41.81 0.0308463
41.845 0.00213171
41.88 -0.00490981
41.915 -0.0176652
41.95 0.00476928
41.985 -0.00532848
42.02 0.00491508
42.055 -0.0180876
42.09 -0.00935349
42.125 -0.0040222
42.16 0.000439364
42.195 -0.00812352
42.23 0.0053086
42.265 0.0351667
42.3 0.0199726
42.335 0.043913
42.37 0.0487838
42.405 0.0839508
42.44 0.0769269
42.475 0.0889589
42.51 0.0860775
42.545 0.0562786
42.58 0.0507586
42.615 0.0197989
42.65 -0.00172363
42.685 0.0255743
42.72 -0.00906261
42.755 -0.00837577
42.79 -0.0054963
42.825 -0.0160641
42.86 0.00823273
42.895 -0.00365842
42.93 0.0196309
42.965 0.0369992
43 0.0404818
43.035 0.0881375
43.07 0.125942
43.105 0.0908584
43.14 0.0623829
43.175 0.0689485
43.21 0.0425232
43.245 0.0459428
43.28 0.0239203
43.315 0.0247632
43.35 0.00931211
43.385 -0.0179544
43.42 -0.0183517
43.455 -0.0150936
43.49 0.00199994
43.525 -0.0124267
43.56 -0.00928018
43.595 0.00550788
43.63 0.0267197
43.665 0.02232
43.7 0.0680793
43.735 0.0871615
43.77 0.0765244
43.805 0.0915943
43.84 0.0767752
43.875 0.0752163
43.91 0.0728712
43.945 0.116421
43.98 0.0531813
44.015 0.0428329
44.05 0.0499793
44.085 0.026634
44.12 0.0130896
44.155 0.0112621
44.19 0.0216801
44.225 0.0276073
44.26 0.00481352
44.295 0.0100022
44.33 0.0311168
44.365 0.00498086
44.4 0.0154779
44.435 0.00174067
44.47 0.021387
44.505 -0.000938002
44.54 -0.00553544
44.575 -0.00910985
44.61 -0.00428912
44.645 -0.0260316
44.68 0.0190212
44.715 0.00249033
44.75 0.0284106
44.785 0.00967475
44.82 0.0295956
44.855 0.068292
44.89 0.0828571
44.925 0.183151
44.96 0.308097
44.995 0.475601
45.03 0.691911
45.065 0.831601
45.1 0.941958
45.135 0.979127
45.17 0.938571
45.205 0.840806
45.24 0.676291
45.275 0.517652
45.31 0.312313
45.345 0.186918
45.38 0.133696
45.415 0.0629825
45.45 0.0458623
45.485 0.00705984
45.52 0.0274112
45.555 0.0022264
45.59 0.0327726
45.625 0.0150119
45.66 -0.00784723
45.695 -0.00464208
45.73 0.0126662
45.765 0.0120941
45.8 0.0345433
45.835 0.0383951
45.87 0.0147585
45.905 0.00366826
45.94 0.0262832
45.975 0.0514426
46.01 0.054545
46.045 0.131238
46.08 0.133139
46.115 0.172959
46.15 0.138078
46.185 0.136262
46.22 0.128904
46.255 0.133394
46.29 0.114217
46.325 0.0569085
46.36 0.0645689
46.395 0.0551617
46.43 0.0941453
46.465 0.119104
46.5 0.130825
46.535 0.168947
46.57 0.234111
46.605 0.271676
46.64 0.300749
46.675 0.307444
46.71 0.303894
46.745 0.272739
46.78 0.265578
46.815 0.203133
46.85 0.191246
46.885 0.148953
46.92 0.10553
46.955 0.0645315
46.99 0.0495397
47.025 0.0334617
47.06 0.0236284
47.095 0.0159247
47.13 0.0194113
47.165 0.0171987
47.2 -0.0103906
47.235 0.0078838
47.27 0.00959513
47.305 0.0196838
47.34 0.015991
47.375 0.0313717
47.41 0.0201619
47.445 0.00221752
47.48 0.0354203
47.515 0.0245185
47.55 0.0314978
47.585 0.0310227
47.62 0.0454389
47.655 0.0742758
47.69 0.0750338
47.725 0.0834371
47.76 0.0639958
47.795 0.0809609
47.83 0.0785536
47.865 0.0511761
47.9 0.0482484
47.935 0.044698
47.97 0.0254542
48.005 0.0347788
48.04 0.0316744
48.075 0.0250709
48.11 0.00792832
48.145 0.0177614
48.18 0.0144463
48.215 0.0206238
48.25 0.0327992
48.285 0.0404884
48.32 0.0556353
48.355 0.0740815
48.39 0.0891082
48.425 0.104092
48.46 0.133402
48.495 0.153824
48.53 0.16275
48.565 0.198564
48.6 0.201948
48.635 0.198993
48.67 0.183594
48.705 0.171846
48.74 0.151174
48.775 0.114918
48.81 0.081274
48.845 0.0644112
48.88 0.0311994
48.915 0.0113003
48.95 -0.00637165
48.985 0.00822899
49.02 0.000204244
49.055 -0.00125435
49.09 -0.0190726
49.125 0.00421429
49.16 0.0128196
49.195 -0.00424879
49.23 0.0218115
49.265 0.00437001
49.3 0.0151869
49.335 0.0116852
49.37 0.0134584
49.405 0.00541008
49.44 0.0236148
49.475 -0.0229353
49.51 -0.0053842
49.545 -0.00062994
49.58 -0.00132008
49.615 0.0102394
49.65 0.00242334
49.685 0.00895595
49.72 0.00091399
49.755 0.0302642
49.79 0.0365162
49.825 0.0316348
49.86 0.0289655
49.895 0.0517785
49.93 0.0534386
49.965 0.0704526
50 0.11359
50.035 0.15948
50.07 0.184872
50.105 0.19818
50.14 0.220292
50.175 0.231492
50.21 0.213563
50.245 0.221613
50.28 0.172902
50.315 0.148165
50.35 0.115982
50.385 0.0782715
50.42 0.0506325
50.455 0.0334898
50.49 0.0351984
50.525 0.0418529
50.56 0.0261147
50.595 0.0266465
50.63 0.028694
50.665 0.00573626
50.7 0.00298852
50.735 0.00104899
50.77 0.00096961
50.805 -0.00557678
50.84 -0.00236858
50.875 0.0158514
50.91 -0.0197845
50.945 -0.00733949
50.98 -0.00654746
51.015 -0.00973581
51.05 0.00118482
51.085 -0.0138672
51.12 0.00796266
51.155 -0.0240701
51.19 -0.00521949
51.225 -0.00424032
51.26 0.00295336
51.295 0.0185639
51.33 0.0013869
51.365 -0.000348633
51.4 -0.00390305
51.435 -0.00931545
51.47 0.00220339
51.505 0.00227376
51.54 -0.0141801
51.575 -0.00930999
51.61 0.00328466
51.645 0.00237775
51.68 -0.00327104
51.715 0.0104845
51.75 -0.0021193
51.785 -0.0133712
51.82 -0.00228423
51.855 -0.0124838
51.89 -0.00995281
51.925 -0.0114062
51.96 -0.00960712
51.995 -0.0176387
52.03 -0.0209064
52.065 -0.0101153
52.1 0.0123736
52.135 0.00089808
52.17 -0.00117472
52.205 -0.0206806
52.24 -0.00511316
52.275 0.00297248
52.31 -0.0038459
52.345 0.0140638
52.38 0.0166132
52.415 0.00984167
52.45 0.0309328
52.485 0.0244676
52.52 0.0178809
52.555 0.0388337
52.59 0.0438539
52.625 0.0606349
52.66 0.0866465
52.695 0.135387
52.73 0.166593
52.765 0.206875
52.8 0.284438
52.835 0.329465
52.87 0.384476
52.905 0.416988
52.94 0.456638
52.975 0.452452
53.01 0.407985
53.045 0.355611
53.08 0.297215
53.115 0.231008
53.15 0.176884
53.185 0.125245
53.22 0.0827915
53.255 0.0614844
53.29 0.0382516
53.325 0.0593953
53.36 0.0521439
53.395 0.0664175
53.43 0.0726465
53.465 0.0974392
53.5 0.100465
53.535 0.126407
53.57 0.127272
53.605 0.133979
53.64 0.142518
53.675 0.10753
53.71 0.0959814
53.745 0.0704049
53.78 0.0713143
53.815 0.0313633
53.85 0.0397806
53.885 0.0254885
53.92 0.0249428
53.955 0.0298783
53.99 0.00579358
54.025 0.0111259
54.06 0.0157585
54.095 0.0184023
54.13 0.0346135
54.165 0.0236292
54.2 0.0394489
54.235 0.0187303
54.27 0.0287414
54.305 0.0322623
54.34 0.0239764
54.375 0.00954328
54.41 0.017091
54.445 0.0387779
54.48 0.0267465
54.515 0.0100691
54.55 0.00603452
54.585 0.00455342
54.62 0.00231666
54.655 -0.00574361
54.69 -0.018578
54.725 -0.00393793
54.76 0.002083
54.795 -0.0148812
54.83 0.00375141
54.865 0.000210462
54.9 0.0024883
54.935 -0.0138527
54.97 0.00427929
55.005 0.0100952
55.04 0.00709839
55.075 0.0224459
55.11 0.0105875
55.145 0.00406617
55.18 0.0109017
55.215 0.0209258
55.25 0.0126727
55.285 0.0386506
55.32 0.0250671
55.355 0.0331214
55.39 0.0203795
55.425 0.0162321
55.46 0.0194584
55.495 0.0229157
55.53 0.0217478
55.565 0.0164214
55.6 0.0317785
55.635 0.0459139
55.67 0.0379199
55.705 0.0448524
55.74 0.0407603
55.775 0.0401251
55.81 0.0443461
55.845 0.0450945
55.88 0.0283057
55.915 0.0312935
55.95 0.0415906
55.985 0.041014
56.02 0.044614
56.055 0.0549202
56.09 0.0524548
56.125 0.0596175
56.16 0.0592745
56.195 0.0720598
56.23 0.0471713
56.265 0.0479774
56.3 0.0381277
56.335 0.0466277
56.37 0.0455283
56.405 0.0464861
56.44 0.0232852
56.475 0.0311867
56.51 0.0350123
56.545 0.0498278
56.58 0.0531362
56.615 0.054217
56.65 0.0460164
56.685 0.0274474
56.72 0.0223469
56.755 0.0154417
56.79 0.00728927
56.825 0.00963685
56.86 0.00505566
56.895 0.00917443
56.93 0.0115205
56.965 0.00642323
57 0.00680079
57.035 0.0209013
57.07 0.000303582
57.105 0.00630228
57.14 -0.00455397
57.175 0.00770929
57.21 -0.000402471
57.245 0.00221175
57.28 0.00638262
57.315 -0.0112587
57.35 -0.0190369
57.385 0.0046922
57.42 0.00128589
57.455 -0.00449559
57.49 0.00114664
57.525 0.00578988
57.56 0.0075085
57.595 0.00291199
57.63 0.0251806
57.665 0.0084696
57.7 0.0172775
57.735 0.0123992
57.77 0.0153569
57.805 0.0125082
57.84 0.0157855
57.875 0.0126213
57.91 0.025103
57.945 0.0308704
57.98 0.030792
58.015 0.0294111
58.05 0.0369848
58.085 0.0303826
58.12 0.0548269
58.155 0.0422301
58.19 0.041733
58.225 0.0589386
58.26 0.0549558
58.295 0.0383419
58.33 0.0373195
58.365 0.0267086
58.4 0.027441
58.435 0.0108309
58.47 0.0200187
58.505 0.0346823
58.54 0.00723568
58.575 0.0118851
58.61 0.0251219
58.645 0.0199902
58.68 0.0101647
58.715 0.00448012
58.75 0.0122556
58.785 0.0132761
58.82 -0.00190254
58.855 0.0312014
58.89 0.0130102
58.925 0.0219033
58.96 0.020301
58.995 -0.00357846
59.03 -0.0111524
59.065 0.0223019
59.1 0.014314
59.135 0.00573214
59.17 0.0156336
59.205 0.0108319
59.24 0.0259854
59.275 0.0237063
59.31 0.0211632
59.345 0.0260728
59.38 0.012554
59.415 0.0155275
59.45 0.0363166
59.485 0.0433
59.52 0.0699697
59.555 0.0831869
59.59 0.0930725
59.625 0.129247
59.66 0.153658
59.695 0.176792
59.73 0.187846
59.765 0.196339
59.8 0.187896
59.835 0.171016
59.87 0.140594
59.905 0.142581
59.94 0.124397
59.975 0.0940346
60.01 0.099491
60.045 0.0665004
60.08 0.0631192
60.115 0.0463256
60.15 0.0498481
60.185 0.0749144
60.22 0.0870873
60.255 0.0821404
60.29 0.0679851
60.325 0.0809721
60.36 0.0688046
60.395 0.0547967
60.43 0.0459116
60.465 0.0357638
60.5 0.0287579
60.535 0.0285025
60.57 0.0202217
60.605 0.0172991
60.64 -0.00578943
60.675 -0.00378852
60.71 -0.00186533
60.745 -0.0071338
60.78 -0.018326
60.815 -0.0141658
60.85 -0.00253948
60.885 0.00305469
60.92 -0.00896118
60.955 0.0077491
60.99 0.0290103
61.025 0.00534398
61.06 0.00213962
61.095 0.024113
61.13 0.0107949
61.165 0.0281033
61.2 0.0544887
61.235 0.0765313
61.27 0.113448
61.305 0.132792
61.34 0.186831
61.375 0.24156
61.41 0.299967
61.445 0.392109
61.48 0.473656
61.515 0.55537
61.55 0.614495
61.585 0.615325
61.62 0.609019
61.655 0.531222
61.69 0.462513
61.725 0.41621
61.76 0.320584
61.795 0.267943
61.83 0.181172
61.865 0.102224
61.9 0.0967439
61.935 0.0601588
61.97 0.0192575
62.005 0.0115588
62.04 -0.00035614
62.075 0.0165065
62.11 -0.021462
62.145 -0.00176012
62.18 0.00947241
62.215 0.00756037
62.25 0.0172322
62.285 0.0159559
62.32 0.0108242
62.355 -0.0138829
62.39 0.0123093
62.425 0.023334
62.46 0.0230209
62.495 0.020701
62.53 0.0451993
62.565 0.0502792
62.6 0.0713104
62.635 0.0754839
62.67 0.0962617
62.705 0.0740693
62.74 0.113775
62.775 0.0826708
62.81 0.0425375
62.845 0.0458068
62.88 0.0309685
62.915 0.0263296
62.95 0.0310863
62.985 0.0219951
63.02 0.00864595
63.055 0.00314293
63.09 -0.0111915
63.125 0.00402352
63.16 0.000974604
63.195 -0.0168282
63.23 -0.0144631
63.265 -0.0018437
63.3 0.00222107
63.335 -0.0106069
63.37 0.00122732
63.405 0.01339
63.44 0.0109355
63.475 0.00721573
63.51 0.0105958
63.545 0.0210313
63.58 0.0221206
63.615 0.0290228
63.65 0.0339349
63.685 0.0300102
63.72 0.0271488
63.755 0.0285989
63.79 0.0313756
63.825 0.0394864
63.86 0.0185902
63.895 0.0354112
63.93 0.00218982
63.965 0.0223451
64 -0.0102593
64.035 -0.000489695
64.07 0.0063289
64.105 0.010146
64.14 -0.00375016
64.175 -0.00208067
64.21 -0.0199331
64.245 -0.0216516