File: data/xrd/xy/2019-07-01T19_39_31.550325+00_00_LBL_A2.xy
'Id: "" Comment: "Integrate frame 20190716_acnh3_nprop_4flph_02_003.gfrmwith cursor Wedge Cursor #1" Operator: "UC Berkeley" Anode: "Co" Scantype: "TwoTheta" TimePerStep: "450.002"
17.41 -0.0311717
17.45 0.0156062
17.49 0.0305999
17.53 0.0680143
17.57 0.0199863
17.61 0.0351703
17.65 0.0177925
17.69 0.112791
17.73 0.132592
17.77 0.083916
17.81 0.109486
17.85 0.0865235
17.89 0.0731908
17.93 0.0560333
17.97 0.0901446
18.01 -0.0164693
18.05 0.0522179
18.09 0.0768663
18.13 0.158627
18.17 0.0691688
18.21 0.0730344
18.25 0.134468
18.29 0.138824
18.33 0.168727
18.37 0.085798
18.41 0.0615044
18.45 0.0879577
18.49 0.0930666
18.53 0.111794
18.57 -0.0191296
18.61 0.0558816
18.65 0.0399414
18.69 0.0851354
18.73 0.093229
18.77 0.119932
18.81 0.137316
18.85 0.203748
18.89 0.243753
18.93 0.273233
18.97 0.338078
19.01 0.336048
19.05 0.259011
19.09 0.210029
19.13 0.154229
19.17 0.113278
19.21 0.0516497
19.25 0.0346573
19.29 0.0168686
19.33 0.0728128
19.37 0.00366775
19.41 0.0774678
19.45 0.0104047
19.49 0.0304747
19.53 0.0660877
19.57 0.0128185
19.61 -0.00543355
19.65 0.0308115
19.69 -0.00513778
19.73 0.0715462
19.77 0.0296811
19.81 0.0284673
19.85 0.0767257
19.89 0.0325756
19.93 0.0281587
19.97 0.0691087
20.01 0.0347977
20.05 0.0727788
20.09 0.111004
20.13 0.0750002
20.17 0.0243868
20.21 -0.00225123
20.25 0.0581056
20.29 0.0576267
20.33 0.0171011
20.37 0.102659
20.41 0.0230179
20.45 -0.00158176
20.49 0.032566
20.53 0.0304727
20.57 0.0441853
20.61 0.0933284
20.65 0.0331244
20.69 0.0390001
20.73 0.0102934
20.77 0.00415979
20.81 0.0252824
20.85 0.0517282
20.89 0.0619864
20.93 0.0548889
20.97 0.017826
21.01 -0.00351943
21.05 0.119313
21.09 0.0476538
21.13 0.0639211
21.17 0.109481
21.21 0.0562921
21.25 0.0557018
21.29 -0.026037
21.33 0.0573538
21.37 0.0451909
21.41 0.0587472
21.45 0.0649136
21.49 0.0572935
21.53 0.0681957
21.57 0.0445341
21.61 0.0250084
21.65 0.0306588
21.69 -0.0165956
21.73 0.079838
21.77 0.0248586
21.81 -0.000471951
21.85 0.0347309
21.89 0.128847
21.93 0.0464993
21.97 0.109559
22.01 0.0833597
22.05 0.122864
22.09 0.0658865
22.13 0.0606393
22.17 -0.0307286
22.21 0.0538342
22.25 0.0750709
22.29 0.043587
22.33 0.0505983
22.37 0.00231361
22.41 0.00369936
22.45 0.0789882
22.49 0.067269
22.53 0.0646957
22.57 0.11199
22.61 0.103064
22.65 0.123861
22.69 0.0990165
22.73 0.019659
22.77 0.108876
22.81 0.142983
22.85 0.122917
22.89 0.134621
22.93 0.0189857
22.97 0.0198282
23.01 0.0964697
23.05 0.0566962
23.09 -0.0159539
23.13 0.0153284
23.17 -0.0157925
23.21 0.0436062
23.25 0.131083
23.29 0.0183302
23.33 0.0696744
23.37 0.074509
23.41 0.0685133
23.45 0.0335305
23.49 0.0648239
23.53 0.031149
23.57 0.100518
23.61 0.0928258
23.65 0.0331283
23.69 0.0549727
23.73 0.0379983
23.77 0.0635526
23.81 0.0706351
23.85 0.035491
23.89 0.039338
23.93 -0.030402
23.97 0.056777
24.01 0.108488
24.05 0.0838139
24.09 0.0677809
24.13 0.0828979
24.17 0.0429087
24.21 0.0733789
24.25 0.0632696
24.29 0.00353116
24.33 0.0402317
24.37 -0.00688264
24.41 0.0400548
24.45 0.0589371
24.49 0.0740765
24.53 0.0111735
24.57 0.062418
24.61 0.03108
24.65 0.0806177
24.69 0.0116235
24.73 0.0220057
24.77 0.00556778
24.81 0.0476083
24.85 0.0876028
24.89 0.0208155
24.93 0.0564551
24.97 0.0428227
25.01 0.00227191
25.05 0.0224627
25.09 -0.00322629
25.13 0.0259831
25.17 0.00372863
25.21 0.0452407
25.25 -0.0153739
25.29 0.0475991
25.33 -0.0113114
25.37 0.0279452
25.41 0.043559
25.45 0.092076
25.49 0.175389
25.53 0.437708
25.57 0.688782
25.61 1.00096
25.65 1.25307
25.69 1.2521
25.73 0.798042
25.77 0.498585
25.81 0.22878
25.85 0.142307
25.89 0.078993
25.93 0.0627798
25.97 0.0303584
26.01 0.0704864
26.05 0.0592778
26.09 0.0619106
26.13 0.00118525
26.17 0.0186436
26.21 0.0500602
26.25 0.0260826
26.29 0.0608579
26.33 0.0105793
26.37 0.0167041
26.41 0.0132647
26.45 0.0174958
26.49 -0.0311044
26.53 -0.0281873
26.57 0.0225603
26.61 0.014867
26.65 0.0148054
26.69 -0.0138057
26.73 -0.0186628
26.77 0.00342108
26.81 0.0148452
26.85 -0.00452886
26.89 0.0280264
26.93 -0.0155486
26.97 0.0248162
27.01 0.0535171
27.05 0.0306896
27.09 0.0649362
27.13 0.0658839
27.17 0.058944
27.21 0.111165
27.25 0.140412
27.29 0.17611
27.33 0.15168
27.37 0.190388
27.41 0.160956
27.45 0.117239
27.49 0.0905752
27.53 0.103367
27.57 0.0386068
27.61 -0.00731038
27.65 0.0335261
27.69 0.0286796
27.73 0.0168282
27.77 0.0391951
27.81 0.0237109
27.85 0.00939661
27.89 0.0752621
27.93 0.0735232
27.97 0.114592
28.01 0.0977996
28.05 0.0371236
28.09 0.069618
28.13 0.10089
28.17 0.0667336
28.21 0.132939
28.25 0.243873
28.29 0.329774
28.33 0.66035
28.37 0.810032
28.41 0.743554
28.45 0.674512
28.49 0.531248
28.53 0.442783
28.57 0.496093
28.61 0.63148
28.65 0.765826
28.69 0.583397
28.73 0.571373
28.77 0.334843
28.81 0.242718
28.85 0.251268
28.89 0.370484
28.93 0.420834
28.97 0.3874
29.01 0.281112
29.05 0.138095
29.09 0.126914
29.13 0.0503825
29.17 0.0683923
29.21 0.0313885
29.25 0.100269
29.29 0.180484
29.33 0.30562
29.37 0.515017
29.41 0.717587
29.45 0.950664
29.49 1.01263
29.53 0.761018
29.57 0.54684
29.61 0.398485
29.65 0.136183
29.69 0.129225
29.73 0.0723493
29.77 0.0296365
29.81 0.00637262
29.85 0.0498287
29.89 0.0587595
29.93 0.0936375
29.97 0.0501047
30.01 0.06832
30.05 0.0616828
30.09 0.137215
30.13 0.149574
30.17 0.156198
30.21 0.141932
30.25 0.154453
30.29 0.150985
30.33 0.0549084
30.37 0.0582647
30.41 0.0455567
30.45 0.013798
30.49 0.0869751
30.53 0.0398781
30.57 0.0109639
30.61 0.035962
30.65 -0.0112918
30.69 0.0579709
30.73 0.0623317
30.77 0.0818145
30.81 0.15103
30.85 0.0134049
30.89 0.0708822
30.93 0.0847466
30.97 0.0930365
31.01 0.133419
31.05 0.225806
31.09 0.286561
31.13 0.31512
31.17 0.316237
31.21 0.370146
31.25 0.37471
31.29 0.282565
31.33 0.229873
31.37 0.206581
31.41 0.0798369
31.45 0.0933628
31.49 0.0704985
31.53 0.073627
31.57 0.0644895
31.61 0.0731711
31.65 0.0306435
31.69 0.0417383
31.73 0.0345114
31.77 0.0479903
31.81 0.0903041
31.85 0.0193604
31.89 0.0515096
31.93 0.0261407
31.97 -0.00473053
32.01 0.0393534
32.05 0.071709
32.09 0.0315067
32.13 0.0467701
32.17 0.00947941
32.21 0.0675946
32.25 0.0494963
32.29 0.0865565
32.33 0.0798471
32.37 0.065207
32.41 0.0545633
32.45 0.0481643
32.49 0.0517362
32.53 0.0326032
32.57 0.050444
32.61 0.0278636
32.65 0.0522203
32.69 0.0313913
32.73 0.0769182
32.77 0.0546769
32.81 0.0231492
32.85 0.0592392
32.89 0.0181906
32.93 0.0224621
32.97 0.0937401
33.01 0.0747244
33.05 0.0678038
33.09 0.125056
33.13 0.133637
33.17 0.205414
33.21 0.301494
33.25 0.37903
33.29 0.610057
33.33 0.714476
33.37 0.882519
33.41 0.851625
33.45 0.731794
33.49 0.554873
33.53 0.357095
33.57 0.252504
33.61 0.176809
33.65 0.13592
33.69 0.0606858
33.73 0.0539967
33.77 0.024551
33.81 0.0226057
33.85 -0.00315749
33.89 0.0189974
33.93 0.0561984
33.97 -0.00535012
34.01 0.00926759
34.05 -0.0182627
34.09 0.0292117
34.13 -0.0261776
34.17 0.0253176
34.21 0.00182026
34.25 0.0262645
34.29 -0.00321124
34.33 0.0568801
34.37 0.0626033
34.41 0.103114
34.45 0.17328
34.49 0.256791
34.53 0.379959
34.57 0.499567
34.61 0.568422
34.65 0.630885
34.69 0.553559
34.73 0.418659
34.77 0.280734
34.81 0.165029
34.85 0.0900609
34.89 0.0956453
34.93 0.0635875
34.97 0.054659
35.01 0.0395408
35.05 0.0752102
35.09 0.043147
35.13 0.114196
35.17 0.178124
35.21 0.229453
35.25 0.256323
35.29 0.257627
35.33 0.233317
35.37 0.193189
35.41 0.109366
35.45 0.08694
35.49 0.0846718
35.53 0.0599966
35.57 0.0702925
35.61 0.0338004
35.65 0.0217285
35.69 0.0331193
35.73 0.0251112
35.77 0.0132094
35.81 0.0140743
35.85 0.000563368
35.89 0.00798429
35.93 0.0163486
35.97 0.0276021
36.01 0.0148411
36.05 0.0287598
36.09 0.0178115
36.13 0.00931475
36.17 0.0344151
36.21 -0.0176246
36.25 -0.0180727
36.29 -0.0275578
36.33 0.0219667
36.37 0.0102459
36.41 -0.0216556
36.45 0.00831349
36.49 0.00174181
36.53 -0.020579
36.57 -0.0136581
36.61 0.0214219
36.65 -0.0131402
36.69 -0.0156364
36.73 -0.00504281
36.77 0.0153958
36.81 -0.0187336
36.85 0.0189636
36.89 0.047215
36.93 0.0886011
36.97 0.104518
37.01 0.182668
37.05 0.302549
37.09 0.426178
37.13 0.588791
37.17 0.76207
37.21 0.764242
37.25 0.724356
37.29 0.646516
37.33 0.480851
37.37 0.386912
37.41 0.278334
37.45 0.191316
37.49 0.175024
37.53 0.0999421
37.57 0.148229
37.61 0.109201
37.65 0.0989906
37.69 0.0740913
37.73 0.0523943
37.77 0.0342389
37.81 0.0171391
37.85 0.0104981
37.89 -0.00735036
37.93 0.0128943
37.97 0.0528528
38.01 0.0821875
38.05 0.121834
38.09 0.140239
38.13 0.218352
38.17 0.263128
38.21 0.243253
38.25 0.2276
38.29 0.195197
38.33 0.187045
38.37 0.0964574
38.41 0.115933
38.45 0.130441
38.49 0.112532
38.53 0.142783
38.57 0.141822
38.61 0.112269
38.65 0.0969144
38.69 0.0496187
38.73 0.0261213
38.77 -0.00601987
38.81 0.006144
38.85 -0.0271831
38.89 0.00739874
38.93 0.00144956
38.97 0.0243946
39.01 0.00208386
39.05 -0.0082711
39.09 -0.00163931
39.13 -0.00463504
39.17 0.00777691
39.21 0.00358102
39.25 -0.00987513
39.29 0.0298182
39.33 0.0140743
39.37 0.00847837
39.41 -0.0182858
39.45 0.00194327
39.49 -0.0196472
39.53 -0.00393229
39.57 0.00820886
39.61 0.0100443
39.65 0.0186169
39.69 0.00438925
39.73 0.0255724
39.77 0.0704839
39.81 0.039325
39.85 0.0705703
39.89 0.0861465
39.93 0.120462
39.97 0.129205
40.01 0.15776
40.05 0.130004
40.09 0.16124
40.13 0.18646
40.17 0.241813
40.21 0.215481
40.25 0.221936
40.29 0.163075
40.33 0.168676
40.37 0.169148
40.41 0.123695
40.45 0.0744316
40.49 0.0934117
40.53 0.0251324
40.57 0.0419609
40.61 0.0807417
40.65 0.023477
40.69 0.0292327
40.73 0.0174788
40.77 0.0459943
40.81 -0.000837541
40.85 0.00492745
40.89 -0.00200014
40.93 0.000920756
40.97 0.0318996
41.01 0.0275886
41.05 0.0490404
41.09 0.0681417
41.13 0.0836987
41.17 0.123172
41.21 0.158521
41.25 0.202649
41.29 0.246467
41.33 0.248081
41.37 0.254496
41.41 0.2687
41.45 0.266214
41.49 0.239643
41.53 0.23193
41.57 0.188991
41.61 0.145392
41.65 0.13055
41.69 0.0594156
41.73 0.0476509
41.77 0.0655054
41.81 0.0467978
41.85 0.0334563
41.89 0.0293311
41.93 -0.0206087
41.97 0.0416654
42.01 0.0184556
42.05 0.0164846
42.09 0.030549
42.13 0.0168673
42.17 0.0545014
42.21 -0.00642236
42.25 -0.00858844
42.29 0.0495504
42.33 -0.0194102
42.37 0.000641255
42.41 0.0483634
42.45 0.0242104
42.49 0.00973837
42.53 -0.0159767
42.57 -0.00702209
42.61 0.0135479
42.65 0.0272005
42.69 0.0349789
42.73 -0.00197264
42.77 0.0133209
42.81 0.0320611
42.85 0.0537304
42.89 0.0373145
42.93 0.0165952
42.97 0.0270255
43.01 0.0389774
43.05 0.0285402
43.09 0.0394824
43.13 0.0521259
43.17 0.00762455
43.21 -0.00161646
43.25 0.0195558
43.29 0.016455
43.33 0.0430619
43.37 0.0107864
43.41 0.0291248
43.45 0.000806026
43.49 0.0069615
43.53 0.0200226
43.57 -0.000788759
43.61 0.0163677
43.65 0.0381829
43.69 0.0346728
43.73 0.0227588
43.77 0.080291
43.81 0.0545966
43.85 0.0345895
43.89 0.0655965
43.93 0.115535
43.97 0.0728115
44.01 0.0789683
44.05 0.158271
44.09 0.175162
44.13 0.136376
44.17 0.131704
44.21 0.130924
44.25 0.0838324
44.29 0.0819312
44.33 0.0681521
44.37 0.0250058
44.41 0.0308788
44.45 0.0492167
44.49 -0.00295959
44.53 0.0545587
44.57 0.0533315
44.61 0.0252253
44.65 -0.0222707
44.69 0.0148756
44.73 0.0112951
44.77 0.0323706
44.81 0.0127678
44.85 0.000320375
44.89 0.0149894
44.93 0.0410826
44.97 0.0137881
45.01 0.0323544
45.05 0.0144013
45.09 0.0523798
45.13 0.0325031
45.17 0.0132993
45.21 0.00749532
45.25 0.0543823
45.29 0.0212309
45.33 -0.0232163
45.37 -0.0125399
45.41 0.0128173
45.45 0.00906875
45.49 0.0120816
45.53 0.024705
45.57 -0.00136536
45.61 0.022851
45.65 0.0627366
45.69 0.0893511
45.73 0.118397
45.77 0.158943
45.81 0.172733
45.85 0.194858
45.89 0.280504
45.93 0.382327
45.97 0.405733
46.01 0.414478
46.05 0.486162
46.09 0.453802
46.13 0.396304
46.17 0.317422
46.21 0.338658
46.25 0.261067
46.29 0.202196
46.33 0.178989
46.37 0.155452
46.41 0.185258
46.45 0.174665
46.49 0.22442
46.53 0.282256
46.57 0.35863
46.61 0.41163
46.65 0.503894
46.69 0.537601
46.73 0.62845
46.77 0.623273
46.81 0.552594
46.85 0.54039
46.89 0.437977
46.93 0.36788
46.97 0.294645
47.01 0.223893
47.05 0.177181
47.09 0.15581
47.13 0.139382
47.17 0.090103
47.21 0.0849063
47.25 0.0424176
47.29 0.0292334
47.33 0.0042224
47.37 0.0233772
47.41 -0.00229632
47.45 0.0231096
47.49 0.0475681
47.53 0.079383
47.57 0.079806
47.61 0.14632
47.65 0.154932
47.69 0.150428
47.73 0.143801
47.77 0.165189
47.81 0.112768
47.85 0.0815832
47.89 0.0715799
47.93 0.0213525
47.97 0.00922343
48.01 -0.0102342
48.05 -0.0196423
48.09 0.0171535
48.13 0.0250645
48.17 0.036501
48.21 0.0591001
48.25 0.055531
48.29 0.0941172
48.33 0.119236
48.37 0.105096
48.41 0.102037
48.45 0.129118
48.49 0.181357
48.53 0.18202
48.57 0.283258
48.61 0.335862
48.65 0.377449
48.69 0.389731
48.73 0.401407
48.77 0.407093
48.81 0.322065
48.85 0.272701
48.89 0.218989
48.93 0.176439
48.97 0.0707907
49.01 0.0513149
49.05 0.0284282
49.09 0.0314404
49.13 0.0347909
49.17 0.0154078
49.21 -0.0066823
49.25 -0.00230781
49.29 -0.0114786
49.33 -0.00070993
49.37 0.0298275
49.41 -0.0117033
49.45 0.0118709
49.49 0.0095007
49.53 0.0174834
49.57 0.0578109
49.61 0.0125865
49.65 0.0472074
49.69 0.0656826
49.73 0.0775887
49.77 0.12097
49.81 0.0924227
49.85 0.0775134
49.89 0.0627752
49.93 0.0595364
49.97 0.0318184
50.01 0.0148056
50.05 0.0120907
50.09 0.0289609
50.13 -0.00490987
50.17 0.00745396
50.21 -0.0246663
50.25 0.0101293
50.29 0.0281773
50.33 -0.00880213
50.37 -0.00344504
50.41 -0.0116299
50.45 -0.0054542
50.49 -0.00828106
50.53 -0.000675118
50.57 -0.00932684
50.61 -0.0116689
50.65 0.00494519
50.69 -0.0119137
50.73 -0.0171652
50.77 0.008221
50.81 0.0134225
50.85 -0.0111167
50.89 -0.0126062
50.93 -0.00588891
50.97 -0.0179783
51.01 -0.0137461
51.05 -0.0109529
51.09 -0.00398521
51.13 0.0110935
51.17 0.00203669
51.21 -0.0154044
51.25 0.00856963
51.29 0.000636249
51.33 0.00873821
51.37 0.00366565
51.41 -0.0164851
51.45 0.0140072
51.49 -0.00493173
51.53 0.00637428
51.57 0.0135364
51.61 0.022548
51.65 0.0111457
51.69 0.0268845
51.73 -0.00904417
51.77 -0.0164806
51.81 -0.0185647
51.85 -0.00407821
51.89 0.0260699
51.93 -0.00506952
51.97 -0.00459582
52.01 -0.00855422
52.05 -0.00993721
52.09 -0.0238305
52.13 0.00514835
52.17 0.000407077
52.21 -0.0206392
52.25 -0.0215911
52.29 0.00628818
52.33 -0.00957487
52.37 -0.00644304
52.41 0.0398312
52.45 0.0119042
52.49 0.0544816
52.53 0.0776376
52.57 0.0983938
52.61 0.14141
52.65 0.154958
52.69 0.201283
52.73 0.279511
52.77 0.309415
52.81 0.354267
52.85 0.402248
52.89 0.363556
52.93 0.344701
52.97 0.249504
53.01 0.205213
53.05 0.160982
53.09 0.0686069
53.13 0.0262589
53.17 -0.00572436
53.21 0.00170484
53.25 0.0232594
53.29 0.00675185
53.33 -0.0135335
53.37 0.0189852
53.41 -0.0201718
53.45 0.00786519
53.49 0.0147063
53.53 0.00434173
53.57 0.0022245
53.61 0.00447702
53.65 0.0401262
53.69 -0.00689992
53.73 -0.0108625
53.77 -0.0206222
53.81 0.012448
53.85 -0.00928692
53.89 0.0107306
53.93 0.00159041
53.97 -0.00339458
54.01 -0.0237154
54.05 0.01335
54.09 0.0171193
54.13 0.0319232
54.17 0.0321065
54.21 0.0338081
54.25 0.101283
54.29 0.103016
54.33 0.148684
54.37 0.190024
54.41 0.187692
54.45 0.270068
54.49 0.306585
54.53 0.415921
54.57 0.480888
54.61 0.562363
54.65 0.635814
54.69 0.656671
54.73 0.678294
54.77 0.618807
54.81 0.543117
54.85 0.460901
54.89 0.325681
54.93 0.243367
54.97 0.149091
55.01 0.115277
55.05 0.0741987
55.09 0.0666082
55.13 0.044614
55.17 0.0324545
55.21 0.0107076
55.25 0.0358886
55.29 -0.00600606
55.33 0.0177883
55.37 -0.0148102
55.41 0.00311067
55.45 0.0168785
55.49 -0.0149618
55.53 0.00264652
55.57 0.00629589
55.61 0.0136133
55.65 -0.0158153
55.69 -0.00100171
55.73 0.0175209
55.77 0.0197571
55.81 0.0230909
55.85 0.0143693
55.89 0.0323092
55.93 0.017286
55.97 0.0251485
56.01 0.000424624
56.05 0.0250657
56.09 0.059941
56.13 0.0475057
56.17 0.0587485
56.21 0.0635693
56.25 0.0463355
56.29 0.0569983
56.33 0.0830368
56.37 0.0782853
56.41 0.0711045
56.45 0.103934
56.49 0.060528
56.53 0.0681308
56.57 0.0990175
56.61 0.120444
56.65 0.118066
56.69 0.0830678
56.73 0.124262
56.77 0.107853
56.81 0.097913
56.85 0.0668854
56.89 0.0508424
56.93 0.0588709
56.97 0.0410287
57.01 0.0147486
57.05 0.0193184
57.09 0.0137881
57.13 -0.00465214
57.17 -0.017659
57.21 -0.00621095
57.25 0.0161013
57.29 0.00815031
57.33 0.039012
57.37 -0.0143455
57.41 0.00812432
57.45 0.027581
57.49 0.00578021
57.53 0.0137176
57.57 0.0114933
57.61 0.0370468
57.65 0.0102136
57.69 0.0182949
57.73 0.0170019
57.77 0.0212878
57.81 0.0109766
57.85 0.0289931
57.89 0.0249499
57.93 0.0114139
57.97 0.0117681
58.01 -0.00598456
58.05 0.00270818
58.09 0.0228652
58.13 0.017712
58.17 0.0437969
58.21 0.0295196
58.25 0.0465332
58.29 0.0164016
58.33 0.021733
58.37 0.0349734
58.41 0.0345931
58.45 0.0288619
58.49 0.0264481
58.53 0.0146427
58.57 0.014849
58.61 0.0173712
58.65 -0.0109649
58.69 0.0129409
58.73 0.000528995
58.77 -0.00399013
58.81 0.0450722
58.85 0.0452072
58.89 0.0214197
58.93 0.0171615
58.97 0.0224561
59.01 0.0485675
59.05 0.0513517
59.09 0.0564089
59.13 0.0881606
59.17 0.109052
59.21 0.109368
59.25 0.179612
59.29 0.165725
59.33 0.210491
59.37 0.239396
59.41 0.260115
59.45 0.162939
59.49 0.144143
59.53 0.108024
59.57 0.0687662
59.61 0.0984523
59.65 0.0614382
59.69 0.0210596
59.73 0.0530565
59.77 0.0416937
59.81 0.0461245
59.85 0.0152998
59.89 0.03298
59.93 0.0200045
59.97 0.0257832
60.01 0.021107
60.05 0.0236737
60.09 0.0192942
60.13 0.0355173
60.17 -0.0207386
60.21 0.0268199
60.25 -0.0218493
60.29 -0.022015
60.33 0.00818702
60.37 0.0346295
60.41 0.0312881
60.45 0.0229452
60.49 0.00794302
60.53 0.0233533
60.57 0.0231611
60.61 0.0457467
60.65 0.0257947
60.69 0.0404165
60.73 0.0367666
60.77 0.0602553
60.81 0.0546434
60.85 0.0395272
60.89 0.0339574
60.93 0.00114156
60.97 0.00202461
61.01 0.0174421
61.05 0.0474394
61.09 0.0511659
61.13 0.00969251
61.17 0.0429309
61.21 0.0421759
61.25 0.0470124
61.29 0.0219342
61.33 0.00848425
61.37 0.0138081
61.41 0.0517634
61.45 0.0284554
61.49 0.0237
61.53 0.0304195
61.57 0.0112074
61.61 0.00836465
61.65 0.00865991
61.69 0.000549955
61.73 0.00694046
61.77 -0.0117591
61.81 0.0208648
61.85 0.00715961
61.89 0.00759795
61.93 -0.0186796
61.97 0.0511357
62.01 0.00753958
62.05 0.00309344
62.09 0.0320076
62.13 0.0254009
62.17 -0.00696644
62.21 -0.0144609
62.25 0.00518749
62.29 -0.00926196
62.33 0.00710478
62.37 0.00630452
62.41 -0.0077295
62.45 -0.0117762
62.49 0.00734133
62.53 -0.0117585
62.57 -0.00498154
62.61 0.0167537
62.65 -0.00227711
62.69 0.0130168
62.73 0.0220412
62.77 0.0161685
62.81 0.00575283
62.85 0.0205332
62.89 0.0342008
62.93 0.00657654
62.97 0.0113142
63.01 0.0162257
63.05 0.0192378
63.09 -0.0167347
63.13 -0.00371888
63.17 0.0335157
63.21 0.00100102
63.25 0.00806493
63.29 -0.0161768
63.33 0.00899724
63.37 0.000358522
63.41 0.0299701
63.45 -0.012105
63.49 0.00370031
63.53 -0.0106417
63.57 0.0286231
63.61 0.0401248
63.65 0.0153609
63.69 0.0264238
63.73 0.0194103
63.77 0.00967195
63.81 0.013127
63.85 0.038874
63.89 0.0156128
63.93 0.0258781
63.97 0.0235916
64.01 0.0263044
64.05 0.0111156
64.09 -0.0151396
64.13 0.00717358
64.17 0.00952936
64.21 -0.0208023
64.25 -0.0118262
64.29 0.000504169
64.33 0.0295642
64.37 0.0255517
64.41 -0.00828039
64.45 0.0366303
64.49 -0.00590896
64.53 0.0021297
64.57 0.0347752
64.61 0.0148619
64.65 0.00766965
64.69 0.015747
64.73 0.0517054
64.77 0.0651892
64.81 0.0596148
64.85 0.0435762
64.89 0.0659655
64.93 0.0709564
64.97 0.0891888
65.01 0.0952056
65.05 0.0940691
65.09 0.0947282
65.13 0.0715362
65.17 0.134444
65.21 0.0943664
65.25 0.0640653
65.29 0.0730226
65.33 0.0687331
65.37 0.0276753
65.41 0.00367867
65.45 -0.0105478
65.49 -0.00795794
65.53 0.0131356
65.57 -0.0202983
65.61 -0.0141114
65.65 -0.00134035
65.69 0.00717488
65.73 0.0171643
65.77 0.0192952
65.81 0.00366403
65.85 -0.00458356
65.89 0.000730647
65.93 0.00926499
65.97 0.00938699
66.01 -0.018953
66.05 0.00467133
66.09 0.0152978
66.13 0.00902625
66.17 0.0114313
66.21 0.0367195
66.25 0.0035511
66.29 0.0425669
66.33 0.0250617
66.37 0.016694
66.41 0.00809633
66.45 0.0143642
66.49 0.000535444
66.53 0.010295
66.57 0.0128219
66.61 0.0414107
66.65 0.00529792
66.69 0.00105325
66.73 0.0124414
66.77 -0.00695229
66.81 -0.0161674
66.85 0.00663484
66.89 0.00553613
66.93 0.00409025
66.97 -0.006415
67.01 0.00877662
67.05 -0.00260719
67.09 0.0223052
67.13 -0.00155582
67.17 0.0226109
67.21 -0.00972247
67.25 -0.00491298
67.29 0.0118591
67.33 -0.00488969
67.37 0.0196401
67.41 0.00162184
67.45 0.00812907
67.49 0.0181076
67.53 0.0082919
67.57 0.0198141
67.61 0.00229716
67.65 0.012967
67.69 -0.00751278
67.73 0.000627072
67.77 0.0140862
67.81 -0.00539399
67.85 -0.000580526
67.89 0.0159674
67.93 -0.00312395
67.97 0.00253368
68.01 -0.0138303
68.05 -0.0104048
68.09 0.00402264
68.13 0.00131315
68.17 0.0149941
68.21 -0.000608842
68.25 0.0444271
68.29 0.0234946
68.33 0.012019
68.37 0.0143159
68.41 0.0168407
68.45 0.000215694
68.49 0.0476493
68.53 -0.0197055
68.57 0.00556872
68.61 0.0188669
68.65 0.0266166
68.69 0.00949566
68.73 0.0203292
68.77 0.0224125
68.81 0.0169567
68.85 0.0306788
68.89 0.0241216
68.93 0.04184
68.97 0.021288
69.01 0.0462152
69.05 0.0398224
69.09 0.0502416
69.13 0.0663184
69.17 0.0546935
69.21 0.0249287
69.25 0.0372715
69.29 0.078705
69.33 0.0441132
69.37 0.0465429
69.41 0.0525638
69.45 0.0358186
69.49 0.0232618
69.53 0.0425646
69.57 0.0509816
69.61 0.0215414
69.65 0.0180443
69.69 0.045132
69.73 0.0193807
69.77 -0.00166357
69.81 -0.00469574
69.85 0.011508
69.89 -0.0198428
69.93 0.0258856
69.97 0.014334
70.01 0.0231518
70.05 0.0217798
70.09 0.0391985
70.13 0.0141295
70.17 0.0149858
70.21 0.00731226
70.25 0.0109089
70.29 0.0483952
70.33 0.0369981
70.37 0.0195522
70.41 0.0191254
70.45 0.023145
70.49 0.0201256
70.53 0.0379023
70.57 0.035381
70.61 -0.00502524
70.65 0.00808655
70.69 0.0386054
70.73 0.0332367
70.77 0.0200299
70.81 0.0185537
70.85 0.00966192
70.89 0.0195427
70.93 0.0156091
70.97 0.0079485
71.01 0.0185765
71.05 0.000390319
71.09 -0.00208357
71.13 0.0123508
71.17 0.0175769
71.21 -0.0160414
71.25 0.0308116
71.29 0.0148192
71.33 -0.0109766
71.37 0.000944694
71.41 0.013808
71.45 0.0114097
71.49 0.0250165
71.53 0.00714803
71.57 -0.0098881
71.61 0.00907085
71.65 0.0152259
71.69 0.0243569
71.73 0.000350858
71.77 0.0113683
71.81 -0.00289471
71.85 0.00508087
71.89 -0.00486515
71.93 0.0120318
71.97 -0.0145852
72.01 -0.0111228
72.05 -0.00147623
72.09 -0.0052442
72.13 0.00606979
72.17 0.0305813
72.21 -0.0189695
72.25 0.026676
72.29 -0.00125172
72.33 0.0137202
72.37 0.0261365
72.41 0.00958713
72.45 0.0241464
72.49 0.0197492
72.53 0.0201333
72.57 0.0119232
72.61 0.0213867
72.65 0.0269654
72.69 0.0077744
72.73 0.0197716
72.77 0.020886
72.81 0.0527219
72.85 0.028138
72.89 0.0432691
72.93 0.0606847
72.97 0.0621586
73.01 0.0510403
73.05 0.106755
73.09 0.0578329
73.13 0.0749777
73.17 0.0806745
73.21 0.0910855
73.25 0.0726612
73.29 0.043453
73.33 0.0425495
73.37 0.0457582
73.41 0.0342564
73.45 0.0302644
73.49 -0.000269032
73.53 0.00846249
73.57 -0.00424667
73.61 -0.00560137
73.65 -0.00106256
73.69 -0.00750724
73.73 0.00646388
73.77 0.0152193
73.81 0.0163376
73.85 -0.00234978
73.89 0.0127853
73.93 0.055815
73.97 0.0421192
74.01 0.0188053
74.05 -0.0108098
74.09 0.032294
74.13 0.00278857
74.17 0.017088
74.21 -0.0157657
74.25 0.00223028
74.29 -0.00851624
74.33 -0.0129387
74.345 -0.0224063