File: data/xrd/xy/2019-06-21T14_37_13.758897+00_00_LBL_D4.xy
'Id: "" Comment: "Integrate frame perovskite_06_001.gfrmwith cursor Wedge Cursor #1" Operator: "UC Berkeley" Anode: "Co" Scantype: "TwoTheta" TimePerStep: "400"
13.82 -0.0312458
13.86 0.0327914
13.9 0.0458102
13.94 0.0290651
13.98 0.0396598
14.02 0.122925
14.06 0.0324913
14.1 0.027671
14.14 0.0427823
14.18 0.0223546
14.22 -0.0297611
14.26 0.0286843
14.3 0.0652577
14.34 0.0696034
14.38 0.0769661
14.42 0.0712155
14.46 0.0343798
14.5 0.047031
14.54 0.0493903
14.58 0.0533733
14.62 0.0229749
14.66 0.0811655
14.7 0.133132
14.74 0.103355
14.78 0.0333188
14.82 -0.000248708
14.86 0.111956
14.9 0.0481942
14.94 0.0487169
14.98 0.0461209
15.02 0.0863659
15.06 0.0684811
15.1 0.0612618
15.14 0.0408352
15.18 0.0460624
15.22 0.0453259
15.26 0.0281397
15.3 0.0620326
15.34 0.063425
15.38 0.01836
15.42 0.0651962
15.46 0.0475925
15.5 0.0242688
15.54 0.031564
15.58 0.0248448
15.62 0.0299318
15.66 0.0392837
15.7 0.0852326
15.74 -0.00975239
15.78 0.0959208
15.82 0.0477179
15.86 -0.000334997
15.9 0.0703585
15.94 0.0281524
15.98 0.0382366
16.02 0.0135275
16.06 0.0986138
16.1 0.0392851
16.14 0.0544538
16.18 0.0873979
16.22 0.086599
16.26 0.00536066
16.3 0.0504321
16.34 0.0886134
16.38 0.0683921
16.42 0.0842911
16.46 0.0327139
16.5 0.0271571
16.54 0.0563141
16.58 0.054935
16.62 0.0441181
16.66 0.0349446
16.7 0.0558609
16.74 0.0430355
16.78 0.0598379
16.82 0.0966361
16.86 0.0833439
16.9 0.0237345
16.94 0.112698
16.98 0.0620497
17.02 0.0410898
17.06 0.0723118
17.1 0.0651699
17.14 0.0129772
17.18 0.0250348
17.22 0.016423
17.26 0.0412289
17.3 0.0281717
17.34 0.0627763
17.38 0.0616634
17.42 0.0353847
17.46 0.0881843
17.5 0.0372197
17.54 -0.00586678
17.58 0.0269689
17.62 0.048478
17.66 0.0283335
17.7 0.0843245
17.74 0.0692098
17.78 0.0803083
17.82 0.0332777
17.86 0.0664316
17.9 0.0542917
17.94 0.0383512
17.98 0.0706552
18.02 0.0962494
18.06 0.0522537
18.1 0.0609749
18.14 0.120653
18.18 0.0787783
18.22 0.0606877
18.26 0.0244549
18.3 0.0257124
18.34 0.0375576
18.38 0.057072
18.42 0.0424697
18.46 0.0422355
18.5 0.0488548
18.54 0.0508497
18.58 0.105039
18.62 0.107311
18.66 0.0513951
18.7 0.0438762
18.74 0.0443169
18.78 0.00876526
18.82 0.056038
18.86 0.0556934
18.9 0.042019
18.94 0.0430903
18.98 0.0826608
19.02 0.0694429
19.06 0.0210622
19.1 0.045271
19.14 0.0383274
19.18 0.0166495
19.22 0.0015565
19.26 0.0448072
19.3 0.0583346
19.34 0.0276022
19.38 0.0737982
19.42 0.0503871
19.46 0.0728241
19.5 0.0409394
19.54 0.0517773
19.58 0.0457732
19.62 0.0311436
19.66 0.0205799
19.7 0.0588055
19.74 0.0584207
19.78 0.0631205
19.82 0.0189338
19.86 0.0470552
19.9 0.0671631
19.94 0.0428259
19.98 0.0738598
20.02 0.000411078
20.06 0.0254223
20.1 0.0136488
20.14 0.0577553
20.18 0.104066
20.22 0.0539191
20.26 0.0640701
20.3 0.0674676
20.34 0.0311737
20.38 0.0349529
20.42 0.0284461
20.46 0.0674652
20.5 0.0308029
20.54 0.0332048
20.58 0.0564617
20.62 0.0319903
20.66 -0.00472158
20.7 -0.00101959
20.74 0.0415099
20.78 0.0714789
20.82 0.0169795
20.86 0.0298816
20.9 0.0610755
20.94 0.0270813
20.98 0.0412744
21.02 0.063593
21.06 0.0477091
21.1 0.0383209
21.14 0.0844476
21.18 0.0808235
21.22 0.013644
21.26 0.0612976
21.3 0.0516692
21.34 0.0586311
21.38 0.0959587
21.42 0.0323904
21.46 0.00272861
21.5 0.0403315
21.54 0.0669099
21.58 0.0556855
21.62 0.00862237
21.66 0.0348194
21.7 0.0556704
21.74 0.107942
21.78 0.0447454
21.82 -0.00676014
21.86 0.0409008
21.9 0.0312961
21.94 0.0752008
21.98 0.0760899
22.02 0.0626269
22.06 0.0502271
22.1 0.0334927
22.14 0.056061
22.18 0.0520197
22.22 0.0553881
22.26 0.0373403
22.3 0.0705619
22.34 0.121168
22.38 0.0498078
22.42 0.036886
22.46 0.0679965
22.5 0.0531733
22.54 -0.0305933
22.58 0.0600919
22.62 0.0393837
22.66 0.0385464
22.7 0.049805
22.74 0.0210896
22.78 0.0311183
22.82 0.0761536
22.86 0.0415399
22.9 0.0213487
22.94 0.0172367
22.98 0.0247196
23.02 -0.00546452
23.06 0.0141979
23.1 0.0466837
23.14 0.0411223
23.18 0.0413341
23.22 0.0407451
23.26 0.0283773
23.3 0.0229062
23.34 0.0615312
23.38 0.0631759
23.42 0.086278
23.46 0.0614732
23.5 0.0570987
23.54 0.113972
23.58 0.123534
23.62 0.0455615
23.66 0.0454694
23.7 0.0608478
23.74 0.0588479
23.78 0.0538573
23.82 0.0525689
23.86 0.0576946
23.9 0.0704911
23.94 0.0643398
23.98 0.0641626
24.02 0.0476901
24.06 0.0287841
24.1 0.0672366
24.14 0.0363611
24.18 0.0677026
24.22 0.0292596
24.26 0.0357244
24.3 0.0280089
24.34 0.0590808
24.38 0.05842
24.42 0.0541914
24.46 0.0511921
24.5 0.0338479
24.54 0.0179855
24.58 0.0494704
24.62 0.0631461
24.66 0.0423716
24.7 0.101371
24.74 0.019456
24.78 0.0230515
24.82 0.0522556
24.86 0.0433644
24.9 0.0242347
24.94 0.0342471
24.98 0.0461776
25.02 0.0668278
25.06 0.0202682
25.1 0.0531994
25.14 0.0160845
25.18 0.0423438
25.22 0.0165305
25.26 0.0150751
25.3 0.0680597
25.34 0.00409881
25.38 0.0651869
25.42 0.0714082
25.46 0.0567712
25.5 0.00764544
25.54 0.01489
25.58 0.0358278
25.62 0.0156191
25.66 0.0126406
25.7 0.0238222
25.74 0.0442793
25.78 0.0127731
25.82 0.0570661
25.86 0.0351537
25.9 0.0578027
25.94 0.0542319
25.98 0.0412695
26.02 0.0533108
26.06 0.0296814
26.1 0.0209294
26.14 0.0521439
26.18 0.0188156
26.22 0.0340734
26.26 0.033646
26.3 0.0467933
26.34 0.0258467
26.38 0.0421911
26.42 -0.0217764
26.46 0.0549648
26.5 0.00937474
26.54 0.078676
26.58 0.106479
26.62 0.079199
26.66 0.0262431
26.7 0.0452358
26.74 0.039468
26.78 0.0355134
26.82 0.0454366
26.86 0.0573668
26.9 0.0509443
26.94 0.0359828
26.98 0.0394073
27.02 0.0690026
27.06 0.0306982
27.1 0.0595879
27.14 0.0734334
27.18 0.0256
27.22 0.0532549
27.26 0.056975
27.3 0.0722337
27.34 -0.01074
27.38 0.0270754
27.42 0.0490448
27.46 0.022606
27.5 0.0679254
27.54 -0.0180589
27.58 0.0366689
27.62 0.0335963
27.66 0.0480674
27.7 0.0317666
27.74 0.00506775
27.78 0.0256184
27.82 0.0195671
27.86 -0.010114
27.9 0.0718904
27.94 0.0299802
27.98 0.023942
28.02 0.0190773
28.06 0.0226946
28.1 0.0541503
28.14 -0.00160942
28.18 0.0286237
28.22 0.00149889
28.26 0.0701854
28.3 0.0287063
28.34 -0.00455345
28.38 0.0288358
28.42 0.0291099
28.46 0.0302608
28.5 0.0549076
28.54 0.0526347
28.58 0.063725
28.62 0.0692854
28.66 0.12088
28.7 0.109934
28.74 0.185274
28.78 0.160762
28.82 0.118602
28.86 0.0723895
28.9 0.0361865
28.94 0.0624651
28.98 0.0342499
29.02 0.0271141
29.06 0.00389553
29.1 0.0274464
29.14 0.020312
29.18 0.0407885
29.22 0.0106485
29.26 0.0172635
29.3 0.0239526
29.34 0.0475875
29.38 0.032401
29.42 0.00238247
29.46 0.0428413
29.5 0.0205948
29.54 0.014819
29.58 0.0351702
29.62 0.0374318
29.66 0.0374545
29.7 0.0526808
29.74 0.0694613
29.78 0.0478259
29.82 0.0526573
29.86 0.102131
29.9 0.110054
29.94 0.288137
29.98 0.5256
30.02 0.883435
30.06 1.19585
30.1 1.51583
30.14 1.25225
30.18 0.935161
30.22 0.514502
30.26 0.327255
30.3 0.139585
30.34 0.0612875
30.38 0.0371597
30.42 0.0182749
30.46 0.00982627
30.5 0.0289134
30.54 0.0305416
30.58 0.0297036
30.62 -0.00363239
30.66 0.0421151
30.7 0.0282736
30.74 0.0301089
30.78 0.0292302
30.82 -0.0143582
30.86 0.0128783
30.9 0.0388976
30.94 0.0050349
30.98 0.0388254
31.02 0.0195233
31.06 0.0251204
31.1 0.0513747
31.14 0.0469991
31.18 0.0465818
31.22 0.00413921
31.26 0.0127771
31.3 0.0336109
31.34 0.00134412
31.38 0.0422403
31.42 0.0517506
31.46 0.0582889
31.5 0.0108968
31.54 -0.0160397
31.58 0.0195273
31.62 0.0426568
31.66 0.021052
31.7 0.0217991
31.74 0.0435493
31.78 0.0170147
31.82 0.0217684
31.86 0.0117279
31.9 0.00355222
31.94 0.0169215
31.98 -0.00870482
32.02 0.0375545
32.06 0.00316637
32.1 0.0341969
32.14 0.00625009
32.18 -0.000476967
32.22 -0.00289171
32.26 0.0182786
32.3 0.00564761
32.34 0.0118607
32.38 0.0162967
32.42 0.0230452
32.46 0.0107027
32.5 0.00681918
32.54 0.0327273
32.58 0.014875
32.62 0.0229841
32.66 0.0445729
32.7 0.0232105
32.74 0.0122174
32.78 0.0128469
32.82 0.00223535
32.86 0.00262903
32.9 0.0417734
32.94 0.0181148
32.98 -0.00310734
33.02 0.0105358
33.06 0.0210259
33.1 0.0276133
33.14 0.0273332
33.18 0.0105512
33.22 0.0152899
33.26 -0.00430241
33.3 0.02734
33.34 0.0117563
33.38 0.0272335
33.42 0.0176413
33.46 0.0216897
33.5 0.0438629
33.54 0.0213677
33.58 0.00604213
33.62 -0.0177515
33.66 0.0141423
33.7 0.0250766
33.74 0.0242059
33.78 0.020567
33.82 0.0258115
33.86 0.0184662
33.9 0.0149887
33.94 0.0347421
33.98 0.0340903
34.02 0.025947
34.06 -0.00715671
34.1 0.0444623
34.14 0.00333374
34.18 0.0329217
34.22 0.0216659
34.26 0.0265146
34.3 0.0355895
34.34 0.0310867
34.38 0.0359388
34.42 0.0313633
34.46 0.050859
34.5 0.0646613
34.54 0.0958502
34.58 0.106443
34.62 0.149614
34.66 0.221917
34.7 0.358143
34.74 0.473442
34.78 0.649094
34.82 0.690814
34.86 0.586682
34.9 0.532107
34.94 0.40664
34.98 0.251195
35.02 0.160682
35.06 0.0924538
35.1 0.0651787
35.14 0.0162625
35.18 0.00992816
35.22 0.00954722
35.26 0.0202721
35.3 0.011749
35.34 0.0194709
35.38 0.0113783
35.42 0.0113042
35.46 0.00448422
35.5 0.0215906
35.54 0.0314078
35.58 0.0142539
35.62 -0.0026613
35.66 0.0225921
35.7 -0.00164041
35.74 0.0194776
35.78 0.00628842
35.82 0.0295642
35.86 0.0147161
35.9 0.044291
35.94 0.0116585
35.98 0.02876
36.02 0.0335524
36.06 0.0549642
36.1 0.100079
36.14 0.166247
36.18 0.278119
36.22 0.500827
36.26 0.800902
36.3 1.01002
36.34 1.07748
36.38 0.937285
36.42 0.641556
36.46 0.390877
36.5 0.182858
36.54 0.0917801
36.58 0.0390863
36.62 0.0320144
36.66 0.0373038
36.7 0.0251874
36.74 0.039844
36.78 0.0348744
36.82 -0.00213733
36.86 0.0213738
36.9 0.0144839
36.94 0.0237979
36.98 0.00254438
37.02 0.0185568
37.06 0.018909
37.1 0.024444
37.14 0.0317747
37.18 0.0315339
37.22 0.0581166
37.26 0.0733863
37.3 0.133327
37.34 0.253745
37.38 0.436143
37.42 0.801411
37.46 1.13272
37.5 1.11377
37.54 0.930122
37.58 0.680063
37.62 0.416662
37.66 0.22165
37.7 0.0949852
37.74 0.0653471
37.78 0.0480867
37.82 0.0376478
37.86 0.0148145
37.9 -0.00642282
37.94 0.0279393
37.98 0.017745
38.02 0.0232008
38.06 -0.0140785
38.1 -0.00238994
38.14 0.0129652
38.18 0.00770504
38.22 -0.00729684
38.26 0.00660398
38.3 0.0172953
38.34 0.0169866
38.38 0.0555212
38.42 0.0407077
38.46 0.0404098
38.5 0.0861934
38.54 0.132491
38.58 0.172251
38.62 0.149437
38.66 0.150178
38.7 0.115057
38.74 0.0688428
38.78 0.0170633
38.82 0.0237606
38.86 -0.00281858
38.9 -0.000656023
38.94 0.0293673
38.98 0.0125849
39.02 0.0287172
39.06 0.0259971
39.1 -0.00557086
39.14 0.0304607
39.18 0.0189984
39.22 0.00884278
39.26 -0.0203205
39.3 0.0134872
39.34 0.0172255
39.38 0.00438252
39.42 -0.00632335
39.46 0.0264868
39.5 0.0146959
39.54 -0.00822859
39.58 0.00135705
39.62 0.0168296
39.66 0.0054973
39.7 -0.00221169
39.74 -0.00269415
39.78 0.0104151
39.82 0.0190176
39.86 -0.013381
39.9 0.0126372
39.94 0.0131243
39.98 0.0103808
40.02 -0.000877781
40.06 0.0137258
40.1 -0.0216129
40.14 0.00675839
40.18 0.000475263
40.22 -0.00135174
40.26 0.00956199
40.3 0.00351615
40.34 0.00624497
40.38 0.0106486
40.42 0.0203312
40.46 -0.0233347
40.5 -0.016279
40.54 0.016026
40.58 -0.00093503
40.62 -0.00686169
40.66 -0.00515613
40.7 0.0244689
40.74 0.0279272
40.78 0.0349774
40.82 0.0323104
40.86 0.0313024
40.9 0.0239095
40.94 0.0280069
40.98 -0.00536701
41.02 -0.00164704
41.06 -0.00360317
41.1 0.000263442
41.14 0.0199439
41.18 0.0241344
41.22 0.00804275
41.26 0.0192457
41.3 0.0548219
41.34 0.0809431
41.38 0.112979
41.42 0.0922267
41.46 0.0856458
41.5 0.0808051
41.54 0.0627027
41.58 0.0410031
41.62 0.0288243
41.66 0.0127023
41.7 -0.0212956
41.74 0.0197427
41.78 0.0301123
41.82 0.0104921
41.86 0.0292371
41.9 0.00684745
41.94 -0.000416611
41.98 0.0275051
42.02 -0.00337785
42.06 0.035025
42.1 -0.00229271
42.14 -0.0144088
42.18 -0.0200623
42.22 0.017796
42.26 0.00905571
42.3 0.00796347
42.34 0.0140599
42.38 0.0215532
42.42 0.00545812
42.46 0.0134373
42.5 0.014359
42.54 0.0139611
42.58 0.00449785
42.62 -0.00362371
42.66 0.00966866
42.7 0.0154167
42.74 0.0138549
42.78 -0.0223167
42.82 0.00148786
42.86 0.00572849
42.9 0.0077376
42.94 -0.00136647
42.98 0.0216554
43.02 -0.00555675
43.06 0.00245952
43.1 0.0180668
43.14 0.00506235
43.18 0.00167032
43.22 0.0263102
43.26 0.0239479
43.3 0.01991
43.34 0.00633928
43.38 -0.00215352
43.42 -0.00846489
43.46 0.0222913
43.5 0.0212763
43.54 -0.0137366
43.58 -0.00133241
43.62 0.0210342
43.66 0.0141953
43.7 0.00856501
43.74 -0.00528823
43.78 0.00321026
43.82 0.0118666
43.86 0.00815638
43.9 0.0224089
43.94 -0.0121225
43.98 0.0283548
44.02 0.00802855
44.06 0.0132309
44.1 -0.019937
44.14 0.0214848
44.18 -0.0034104
44.22 0.0229922
44.26 0.0147055
44.3 0.00231808
44.34 -0.0154794
44.38 0.00605612
44.42 0.026773
44.46 0.00735317
44.5 0.00480291
44.54 0.0457517
44.58 0.0319046
44.62 0.0855403
44.66 0.104233
44.7 0.167401
44.74 0.169026
44.78 0.161769
44.82 0.180197
44.86 0.136712
44.9 0.107918
44.94 0.0630938
44.98 0.0380819
45.02 0.0107522
45.06 0.026099
45.1 -0.00597942
45.14 0.0194255
45.18 -0.00627564
45.22 0.0127986
45.26 0.037095
45.3 0.0074964
45.34 -0.00472819
45.38 0.0268655
45.42 -0.00201011
45.46 -0.00046203
45.5 0.0189897
45.54 -0.0132542
45.58 0.0157304
45.62 -0.000770777
45.66 0.0256722
45.7 0.0126812
45.74 0.021466
45.78 -0.0159704
45.82 0.00461372
45.86 -0.000607552
45.9 0.00756516
45.94 -0.0181589
45.98 0.0296128
46.02 -0.000315606
46.06 0.00636171
46.1 -0.00319646
46.14 0.0218987
46.18 0.00550442
46.22 0.0255257
46.26 0.00258075
46.3 0.0281765
46.34 0.00981776
46.38 0.0243425
46.42 0.0104576
46.46 0.00603411
46.5 0.0121544
46.54 0.0214698
46.58 -0.00305796
46.62 0.0112385
46.66 0.00397796
46.7 0.0130158
46.74 0.00599292
46.78 0.0242355
46.82 -0.0136174
46.86 0.00245771
46.9 0.0285114
46.94 0.00390565
46.98 0.0154029
47.02 0.00768216
47.06 0.00942082
47.1 -0.0124743
47.14 0.0150978
47.18 0.0185982
47.22 0.0290262
47.26 0.00416239
47.3 0.0220363
47.34 0.0347442
47.38 0.0411994
47.42 0.0281782
47.46 0.0562804
47.5 0.0939223
47.54 0.185412
47.58 0.237159
47.62 0.262711
47.66 0.259864
47.7 0.224895
47.74 0.208465
47.78 0.12775
47.82 0.108707
47.86 0.0982058
47.9 0.101934
47.94 0.13206
47.98 0.149549
48.02 0.276295
48.06 0.378205
48.1 0.577983
48.14 0.807559
48.18 0.928852
48.22 0.988172
48.26 0.898818
48.3 0.736611
48.34 0.52097
48.38 0.346657
48.42 0.204445
48.46 0.106876
48.5 0.075736
48.54 0.0540131
48.58 0.0635993
48.62 0.0193605
48.66 0.00199987
48.7 0.0089726
48.74 0.0284685
48.78 0.0344536
48.82 0.000305345
48.86 0.0179115
48.9 0.0477785
48.94 0.0712647
48.98 0.0879506
49.02 0.143585
49.06 0.16838
49.1 0.20579
49.14 0.221769
49.18 0.198896
49.22 0.183481
49.26 0.12939
49.3 0.0837023
49.34 0.0415165
49.38 0.0415716
49.42 0.0232971
49.46 0.0176847
49.5 0.00513138
49.54 -0.000279239
49.58 -0.00272313
49.62 0.000350609
49.66 0.00805062
49.7 0.00430495
49.74 0.00100879
49.78 0.0252758
49.82 -0.0019796
49.86 0.0201817
49.9 0.0265798
49.94 0.0125922
49.98 0.0297862
50.02 0.0509525
50.06 0.0617283
50.1 0.081563
50.14 0.138738
50.18 0.224474
50.22 0.28457
50.26 0.344465
50.3 0.415956
50.34 0.371365
50.38 0.344824
50.42 0.265307
50.46 0.173324
50.5 0.128379
50.54 0.0937974
50.58 0.0547174
50.62 0.033213
50.66 0.0234861
50.7 0.0385592
50.74 0.0222312
50.78 -0.00324211
50.82 0.022
50.86 0.0297164
50.9 0.0192091
50.94 0.00392833
50.98 0.00772851
51.02 0.00476521
51.06 0.0047355
51.1 0.0121743
51.14 -0.0011522
51.18 -0.0024058
51.22 -0.0186604
51.26 -0.0146434
51.3 0.00584301
51.34 -0.00470364
51.38 0.0170803
51.42 0.00508565
51.46 0.00064458
51.5 0.00603762
51.54 0.00929771
51.58 0.00555923
51.62 0.0134004
51.66 0.0172388
51.7 0.0298754
51.74 0.0268465
51.78 0.0378607
51.82 0.076325
51.86 0.111178
51.9 0.137668
51.94 0.206558
51.98 0.229597
52.02 0.260533
52.06 0.224981
52.1 0.169101
52.14 0.127762
52.18 0.0802053
52.22 0.0348784
52.26 0.019043
52.3 0.0181445
52.34 0.0168306
52.38 -0.0203596
52.42 0.0160447
52.46 -0.00135711
52.5 0.00518423
52.54 0.00843291
52.58 -0.0109955
52.62 0.0104448
52.66 -0.00189807
52.7 -0.000342632
52.74 0.0144876
52.78 -0.0121623
52.82 -0.00405223
52.86 0.00511178
52.9 -0.00522154
52.94 0.0109053
52.98 -0.00780803
53.02 0.00931198
53.06 -0.00315433
53.1 0.00801955
53.14 -0.00347829
53.18 0.00278106
53.22 0.0108959
53.26 -0.00195242
53.3 -0.0133875
53.34 0.0125207
53.38 0.000984967
53.42 0.0108717
53.46 -0.00113342
53.5 0.0037655
53.54 0.00704497
53.58 0.00754991
53.62 0.0268715
53.66 0.0370683
53.7 0.0479506
53.74 0.0701687
53.78 0.0749152
53.82 0.0861256
53.86 0.0984348
53.9 0.0870906
53.94 0.0864803
53.98 0.0679588
54.02 0.0338924
54.06 0.0350077
54.1 0.0170744
54.14 -0.00682537
54.18 0.00857222
54.22 -0.00777308
54.26 0.00105618
54.3 -0.00190336
54.34 0.00743271
54.38 -0.00888654
54.42 -0.0080836
54.46 -0.0127586
54.5 -0.000137103
54.54 -0.00744647
54.58 0.00453166
54.62 -0.019592
54.66 0.00256075
54.7 -0.00899709
54.74 -0.0084274
54.78 -0.00270299
54.82 -0.00997777
54.86 0.0161082
54.9 0.0204363
54.94 0.0163352
54.98 0.00423715
55.02 0.0175648
55.06 0.0195885
55.1 0.00565976
55.14 0.018836
55.18 0.0318903
55.22 0.00534363
55.26 0.0237494
55.3 0.0209814
55.34 0.0137365
55.38 0.0184747
55.42 -0.00619388
55.46 -0.00329718
55.5 -0.00370031
55.54 0.00945523
55.58 0.00301051
55.62 0.00511386
55.66 0.00377845
55.7 0.0244534
55.74 0.0109467
55.78 0.00646695
55.82 0.0174577
55.86 0.0242994
55.9 0.00977056
55.94 -0.00569987
55.98 0.00342063
56.02 0.0139189
56.06 -0.00282878
56.1 -0.00779492
56.14 0.0305183
56.18 0.00604856
56.22 0.00279466
56.26 0.0133177
56.3 0.0294155
56.34 0.021535
56.38 0.0440983
56.42 0.0200651
56.46 0.0291465
56.5 0.0111751
56.54 0.017651
56.58 0.0146595
56.62 0.0136144
56.66 -0.000100005
56.7 0.00862234
56.74 0.0177443
56.78 0.0154359
56.82 0.0165408
56.86 0.0162804
56.9 0.0516185
56.94 0.0610276
56.98 0.0757053
57.02 0.067445
57.06 0.0904435
57.1 0.086128
57.14 0.071967
57.18 0.0569811
57.22 0.0329159
57.26 0.0549187
57.3 0.039914
57.34 0.024371
57.38 0.0165791
57.42 0.0284979
57.46 0.0162887
57.5 0.0204355
57.54 0.034989
57.58 0.0487568
57.62 0.0623649
57.66 0.102329
57.7 0.130815
57.74 0.192434
57.78 0.242772
57.82 0.274934
57.86 0.317162
57.9 0.306469
57.94 0.253602
57.98 0.22052
58.02 0.187102
58.06 0.131621
58.1 0.116742
58.14 0.057526
58.18 0.0591179
58.22 0.0212859
58.26 0.0174238
58.3 0.026361
58.34 -0.00660855
58.38 0.0204836
58.42 0.0147377
58.46 0.0118378
58.5 0.026042
58.54 0.00261588
58.58 -0.00341663
58.62 0.00894526
58.66 0.00863451
58.7 0.00968709
58.74 0.0068506
58.78 0.00523744
58.82 0.0216388
58.86 0.0354268
58.9 0.0182889
58.94 0.0216726
58.98 0.000522839
59.02 0.0335611
59.06 0.00599342
59.1 -0.00656655
59.14 0.0107921
59.18 0.0160009
59.22 0.0240268
59.26 0.0189515
59.3 0.000197533
59.34 0.00935943
59.38 0.0146821
59.42 0.0216205
59.46 0.0171985
59.5 0.0248441
59.54 0.0238885
59.58 -0.00227542
59.62 0.0164412
59.66 0.00348926
59.7 0.0184226
59.74 0.0385499
59.78 0.0151273
59.82 0.0140902
59.86 -0.0124672
59.9 0.00832698
59.94 0.0118465
59.98 0.0189989
60.02 0.0167648
60.06 0.0393345
60.1 0.0165894
60.14 0.0342932
60.18 0.0218052
60.22 0.0244075
60.26 0.0123842
60.3 -0.0119029
60.34 0.00665273
60.38 0.0305477
60.42 0.0175181
60.46 0.0121699
60.5 0.00919916
60.54 0.0360023
60.58 0.0148576
60.62 0.00421671
60.66 0.0188649
60.7 0.010441
60.74 0.0175012
60.78 -0.0107831
60.82 0.00849655
60.86 0.0271566
60.9 0.00670837
60.94 -0.00428327
60.98 0.0128213
61.02 0.01011
61.06 0.0135094
61.1 0.012616
61.14 0.0135211
61.18 0.0217033
61.22 0.00788148
61.26 0.0137255
61.3 -0.00390717
61.34 0.00448025
61.38 0.0271608
61.42 0.0240805
61.46 0.0128583
61.5 0.00819402
61.54 0.0250089
61.58 0.0369055
61.62 0.0506664
61.66 0.0718909
61.7 0.0795895
61.74 0.0915608
61.78 0.132488
61.82 0.159297
61.86 0.120131
61.9 0.147005
61.94 0.131227
61.98 0.118811
62.02 0.0998229
62.06 0.0461938
62.1 0.0554807
62.14 0.0492004
62.18 0.0348981
62.22 0.0518951
62.26 0.0365355
62.3 0.0236374
62.34 0.0597256
62.38 0.0662744
62.42 0.0813451
62.46 0.134021
62.5 0.184115
62.54 0.225699
62.58 0.299263
62.62 0.316487
62.66 0.319933
62.7 0.311818
62.74 0.280473
62.78 0.216094
62.82 0.165482
62.86 0.1171
62.9 0.0436582
62.94 0.0610586
62.98 0.0381478
63.02 0.0209827
63.06 0.00351602
63.1 0.00444352
63.14 -0.0120023
63.18 0.00771001
63.22 0.0175042
63.26 0.0193653
63.3 0.0153215
63.34 0.00619387
63.38 0.00514215
63.42 0.0279564
63.46 0.0380658
63.5 0.00750216
63.54 0.012728
63.58 0.021601
63.62 0.0105778
63.66 0.00647468
63.7 0.0157796
63.74 0.00713481
63.78 -0.00880943
63.82 0.0222875
63.86 -0.000131595
63.9 0.017703
63.94 -0.00398733
63.98 0.0108209
64.02 0.00690244
64.06 0.00857695
64.1 0.00830999
64.14 -2.90707e-05
64.18 0.0100392
64.22 -0.00947086
64.26 0.00865652
64.3 0.0100587
64.34 -0.0065962
64.38 0.0135935
64.42 -0.000911876
64.46 0.0099248
64.5 -0.00575591
64.54 -0.00279915
64.58 0.00740891
64.62 0.00903007
64.66 0.0271028
64.7 0.0236739
64.74 0.0267116
64.78 0.0245684
64.82 0.0814242
64.86 0.0747602
64.9 0.0840534
64.94 0.0910312
64.98 0.0907048
65.02 0.113727
65.06 0.0860075
65.1 0.0783711
65.14 0.0740619
65.18 0.0580088
65.22 0.0438849
65.26 0.0499205
65.3 0.032615
65.34 0.0194629
65.38 0.0115208
65.42 0.0162586
65.46 0.0263626
65.5 0.0314619
65.54 0.0245813
65.58 0.0278959
65.62 0.0135201
65.66 0.0186074
65.7 0.000452682
65.74 -0.00406657
65.78 0.00853999
65.82 0.00872729
65.86 -0.0129238
65.9 0.00406408
65.94 0.00200564
65.98 -0.00392421
66.02 0.00279506
66.06 0.00803771
66.1 -0.00941031
66.14 0.00127066
66.18 -0.0126018
66.22 -0.0121637
66.26 -0.00464462
66.3 -0.0135653
66.34 0.000393633
66.38 -0.00938662
66.42 0.0120131
66.46 0.00450577
66.5 0.00363423
66.54 0.00667081
66.58 -0.0168404
66.62 0.00788334
66.66 0.00278269
66.7 0.0250593
66.74 0.00312402
66.78 -0.00300069
66.82 -0.00623949
66.86 -0.00101148
66.9 -0.0135368
66.94 -0.0162757
66.98 0.00589275
67.02 0.00561487
67.06 0.00871601
67.1 0.00675724
67.14 0.0256564
67.18 -0.00890225
67.22 0.00195438
67.26 -0.00956511
67.3 0.000629259
67.34 0.00661241
67.38 0.00986348
67.42 0.0150058
67.46 -0.0103487
67.5 0.0114464
67.54 -0.00321911
67.58 0.0100321
67.62 0.0137783
67.66 0.0167223
67.7 0.0123881
67.74 0.0243315
67.78 0.0263304
67.82 0.0506808
67.86 0.0351803
67.9 0.0328368
67.94 0.0386645
67.98 0.0254396
68.02 0.0273966
68.06 0.0408381
68.1 0.0357095
68.14 0.015699
68.18 0.00577672
68.22 -0.00176657
68.26 0.0203695
68.3 0.0150257
68.34 0.0106213
68.38 0.0136215
68.42 0.0196306
68.46 0.00435648
68.5 0.018668
68.54 -0.0153544
68.58 0.00707636
68.62 -0.00450687
68.66 -0.00497847
68.7 -0.00702032
68.74 0.0170003
68.78 -0.00531044
68.82 -0.0016319
68.86 -0.00756518
68.9 -0.0139117
68.94 0.00295617
68.98 0.00131147
69.02 -0.00185612
69.06 -0.00341458
69.1 0.0110509
69.14 0.0118448
69.18 -0.00935011
69.22 0.00914739
69.26 0.0162931
69.3 0.00853141
69.34 0.0174845
69.38 -0.0118877
69.42 0.00348464
69.46 -0.0132695
69.5 0.0198991
69.54 0.0137263
69.58 0.00712282
69.62 -0.000669595
69.66 -0.00716348
69.7 -0.00122091
69.74 0.00233762
69.78 -0.00494909
69.82 -0.000633459
69.86 0.00310215
69.9 0.0277103
69.94 0.0512573
69.98 0.0417632
70.02 0.0428555
70.06 0.0315166
70.1 0.0554146
70.14 0.060276
70.18 0.0346791
70.22 0.0187169
70.26 0.0183755
70.3 0.0129319
70.34 0.0139255
70.38 0.00919493
70.42 -0.0122026
70.46 0.00702729
70.5 0.0167263
70.54 -0.00122338
70.58 -0.00780981
70.62 0.00283602
70.66 0.00786546
70.7 -0.0162407
70.74 -0.00422871
70.78 -0.0055581
70.82 0.0149281
70.86 0.000621647
70.9 0.00935661
70.94 0.0287524
70.98 0.0153068
71.02 0.0382583
71.06 0.0506687
71.1 0.0639651
71.14 0.0658991
71.18 0.0944564
71.22 0.119126
71.26 0.114838
71.3 0.130803
71.34 0.116951
71.38 0.125101
71.42 0.107702
71.46 0.11016
71.5 0.0611176
71.54 0.0604621
71.58 0.043883
71.62 0.0379888
71.66 0.0218898
71.7 0.0221025
71.74 0.00886616
71.78 0.00677933
71.82 -0.00658251
71.86 -0.0115196
71.9 -0.00433125
71.94 -0.0160754
71.98 0.0224482
72.02 0.00292056
72.06 0.0252225
72.1 0.0228245
72.14 0.0612089
72.18 0.0752627
72.22 0.0421913
72.26 0.00710997
72.3 0.0123575
72.34 0.00150077
72.38 -0.018182
72.385 -0.0183