File: data/xrd/xy/2019-05-29T17_22_53.471261+00_00_LBL_H5.xy
'Id: "" Comment: "Integrate frame 060320190_02_002.gfrmwith cursor Wedge Cursor #2" Operator: "UC Berkeley" Anode: "Co" Scantype: "TwoTheta" TimePerStep: "400"
14.33 -0.0317513
14.365 -0.0133761
14.4 0.0317178
14.435 0.0187303
14.47 -0.0122725
14.505 -0.0305638
14.54 -0.000814295
14.575 0.0337432
14.61 0.0579584
14.645 0.0549188
14.68 -0.0156069
14.715 0.0305411
14.75 -0.0193919
14.785 0.000406165
14.82 0.0346279
14.855 0.0424498
14.89 0.0572723
14.925 0.00585992
14.96 0.0201378
14.995 0.0272734
15.03 -0.0120511
15.065 0.0637883
15.1 -0.0088855
15.135 0.0325351
15.17 0.0529549
15.205 0.0289719
15.24 0.0026846
15.275 0.0718357
15.31 0.0219896
15.345 0.0339156
15.38 0.0437183
15.415 0.0340294
15.45 0.0249352
15.485 0.0298065
15.52 -2.56359e-05
15.555 0.0337871
15.59 0.0456608
15.625 0.0324786
15.66 0.0248736
15.695 0.0353236
15.73 -0.0230643
15.765 0.0232928
15.8 0.00247801
15.835 0.0261789
15.87 0.00624835
15.905 -0.0133318
15.94 0.0159204
15.975 0.0478562
16.01 0.0331643
16.045 0.000131112
16.08 -0.0258736
16.115 0.0414011
16.15 0.0166273
16.185 0.0532304
16.22 0.0714877
16.255 0.0400516
16.29 -0.00480509
16.325 0.0538225
16.36 0.03693
16.395 0.0594534
16.43 0.0881963
16.465 0.0105862
16.5 0.0281198
16.535 0.0247435
16.57 0.0230453
16.605 0.0642121
16.64 0.0460496
16.675 0.01546
16.71 0.050312
16.745 0.0198764
16.78 0.010642
16.815 0.022878
16.85 0.0274949
16.885 0.06561
16.92 0.0362503
16.955 0.0418967
16.99 0.0236284
17.025 0.00038549
17.06 -0.000829645
17.095 -0.00569224
17.13 -0.00309728
17.165 0.0337132
17.2 0.0197147
17.235 -0.0173292
17.27 -0.0124435
17.305 -0.0262973
17.34 0.0240346
17.375 0.0452601
17.41 0.0499902
17.445 0.0455155
17.48 0.0108184
17.515 0.0377423
17.55 0.0519439
17.585 0.0363219
17.62 0.0673744
17.655 0.0551057
17.69 0.0499946
17.725 0.018527
17.76 0.0539576
17.795 0.00362113
17.83 0.0106493
17.865 0.0467328
17.9 0.0253367
17.935 0.0621755
17.97 0.0485797
18.005 0.0299537
18.04 0.0519199
18.075 0.0200444
18.11 0.00791216
18.145 0.0384778
18.18 0.0618102
18.215 0.023744
18.25 0.0473816
18.285 0.0265302
18.32 0.00448912
18.355 0.0693337
18.39 0.014507
18.425 0.0204356
18.46 0.0490422
18.495 0.0405228
18.53 0.0312933
18.565 0.0198595
18.6 0.0685053
18.635 0.0278834
18.67 0.135144
18.705 0.0745095
18.74 0.0482696
18.775 0.121599
18.81 0.0960331
18.845 0.0932277
18.88 0.0833221
18.915 0.0139334
18.95 0.0550507
18.985 0.072402
19.02 0.0397144
19.055 0.0392228
19.09 0.0264189
19.125 0.023581
19.16 0.0327743
19.195 0.0315759
19.23 0.0504614
19.265 0.057637
19.3 0.0575406
19.335 0.0619659
19.37 0.0563988
19.405 0.0287005
19.44 0.0213104
19.475 0.0391241
19.51 0.03104
19.545 0.0202178
19.58 0.0212507
19.615 0.0368794
19.65 0.0156002
19.685 0.0501889
19.72 0.0107406
19.755 0.0500779
19.79 0.0533929
19.825 0.0327425
19.86 0.0433862
19.895 -0.00107549
19.93 0.0282714
19.965 0.00586858
20 0.0460072
20.035 0.0355498
20.07 0.0366696
20.105 0.0562018
20.14 0.0272059
20.175 0.0636178
20.21 0.0523706
20.245 0.0605426
20.28 0.0385309
20.315 0.0277506
20.35 0.0352226
20.385 0.043335
20.42 0.0374849
20.455 0.0453414
20.49 0.0498939
20.525 0.0300119
20.56 0.0102322
20.595 0.0459865
20.63 0.0646582
20.665 0.0422962
20.7 0.0457787
20.735 0.0313693
20.77 0.0687804
20.805 0.0358051
20.84 0.0242045
20.875 0.0935
20.91 0.0368784
20.945 0.00412103
20.98 0.0354448
21.015 0.00372924
21.05 0.00386452
21.085 0.0368281
21.12 0.0311258
21.155 0.0390323
21.19 0.0144923
21.225 0.0330408
21.26 0.0115118
21.295 0.0160602
21.33 0.0145688
21.365 0.0402739
21.4 0.0252764
21.435 0.0190977
21.47 0.0600069
21.505 -0.0158506
21.54 -0.00748297
21.575 0.0149271
21.61 0.043809
21.645 -0.00762837
21.68 0.0109799
21.715 0.017384
21.75 -0.0014501
21.785 0.0362218
21.82 0.0543714
21.855 -0.0105487
21.89 0.0168912
21.925 0.0130152
21.96 0.02922
21.995 0.0465471
22.03 0.0301331
22.065 0.00684199
22.1 0.00329263
22.135 0.0409367
22.17 0.0224925
22.205 0.0089881
22.24 0.0179758
22.275 0.056634
22.31 0.0232155
22.345 0.0169144
22.38 -0.022333
22.415 0.0330958
22.45 0.0319461
22.485 0.0578994
22.52 0.0714221
22.555 0.0258331
22.59 0.0544506
22.625 0.0491273
22.66 0.0473659
22.695 0.029861
22.73 0.0147847
22.765 0.00633079
22.8 0.02719
22.835 0.046562
22.87 0.0158539
22.905 -0.018908
22.94 0.0195059
22.975 0.0150001
23.01 0.014202
23.045 0.00461075
23.08 0.0299343
23.115 0.0627918
23.15 0.00987964
23.185 0.0246486
23.22 0.065427
23.255 0.0544985
23.29 0.0699461
23.325 0.0978708
23.36 0.161531
23.395 0.204313
23.43 0.170607
23.465 0.202906
23.5 0.156614
23.535 0.106148
23.57 0.0893655
23.605 0.0593337
23.64 0.0674548
23.675 0.0479363
23.71 0.0610623
23.745 0.031859
23.78 0.0107673
23.815 0.0280707
23.85 0.0413694
23.885 -0.000625488
23.92 0.00781908
23.955 0.0328677
23.99 0.0155916
24.025 0.0106322
24.06 0.0541212
24.095 0.0211554
24.13 0.031745
24.165 0.00370213
24.2 0.017245
24.235 0.0230249
24.27 0.000386526
24.305 0.0142161
24.34 0.0218978
24.375 0.00401857
24.41 0.0207138
24.445 0.0184083
24.48 0.0155388
24.515 0.0501465
24.55 0.033106
24.585 0.0188261
24.62 0.00884912
24.655 0.0228965
24.69 0.00786749
24.725 -0.00122744
24.76 0.00388049
24.795 -0.022256
24.83 0.0358416
24.865 0.0141419
24.9 0.054541
24.935 0.0227299
24.97 0.0649599
25.005 0.0260341
25.04 0.00948896
25.075 0.0111977
25.11 -0.0057301
25.145 0.0566445
25.18 -0.00810022
25.215 0.0094205
25.25 0.0389585
25.285 0.0144635
25.32 0.0255349
25.355 0.0154227
25.39 0.0274914
25.425 0.0224585
25.46 0.00713128
25.495 0.0135324
25.53 -0.0119702
25.565 0.0187603
25.6 0.0559639
25.635 0.0713406
25.67 0.0213989
25.705 0.0237316
25.74 0.00248741
25.775 0.0202537
25.81 0.0465146
25.845 0.0108199
25.88 0.00795555
25.915 0.00684135
25.95 -0.0218523
25.985 0.0108876
26.02 -0.00297924
26.055 0.0205725
26.09 0.0583965
26.125 0.0328173
26.16 0.0302457
26.195 0.024438
26.23 0.000533176
26.265 0.0310131
26.3 0.0496061
26.335 0.0263057
26.37 -0.000734439
26.405 0.0232474
26.44 0.0291744
26.475 0.031377
26.51 0.0415815
26.545 -0.00944889
26.58 0.022336
26.615 0.0324748
26.65 0.0257834
26.685 0.0312373
26.72 0.0391211
26.755 0.0204649
26.79 0.0291394
26.825 0.0278917
26.86 0.0238721
26.895 0.0196996
26.93 0.0505609
26.965 0.0346698
27 0.0473132
27.035 0.0425354
27.07 0.0590855
27.105 0.0303199
27.14 0.0643634
27.175 0.0199874
27.21 0.0394686
27.245 0.032898
27.28 0.0349452
27.315 0.0639481
27.35 0.07308
27.385 0.0635806
27.42 0.0541156
27.455 0.0680324
27.49 0.0736831
27.525 0.0730388
27.56 0.0669471
27.595 0.0870957
27.63 0.0937006
27.665 0.0718935
27.7 0.0861232
27.735 0.0588525
27.77 0.0234649
27.805 0.0301973
27.84 0.0200063
27.875 0.0459388
27.91 0.0361464
27.945 0.0426824
27.98 0.0567788
28.015 0.0480909
28.05 0.0488959
28.085 0.0412003
28.12 0.100672
28.155 0.194533
28.19 0.246128
28.225 0.242314
28.26 0.371951
28.295 0.268685
28.33 0.269661
28.365 0.170197
28.4 0.181858
28.435 0.112233
28.47 0.0991933
28.505 0.10714
28.54 0.0929794
28.575 0.0441044
28.61 0.0732488
28.645 0.0256622
28.68 0.0800467
28.715 0.0526859
28.75 0.0554787
28.785 0.0994083
28.82 0.0435105
28.855 0.0493976
28.89 0.0626929
28.925 0.0692562
28.96 0.042206
28.995 0.0621638
29.03 0.0730359
29.065 0.0931965
29.1 0.120642
29.135 0.138135
29.17 0.153712
29.205 0.139378
29.24 0.132222
29.275 0.12902
29.31 0.140301
29.345 0.111227
29.38 0.115401
29.415 0.128286
29.45 0.0586387
29.485 0.0276285
29.52 0.0435346
29.555 0.0087498
29.59 0.0227252
29.625 0.0184686
29.66 0.0334469
29.695 -0.00772466
29.73 0.0316233
29.765 -0.0257509
29.8 0.0416814
29.835 0.00526257
29.87 0.00851447
29.905 0.0164722
29.94 0.036752
29.975 0.0181261
30.01 -0.00254421
30.045 0.0211138
30.08 -0.0108824
30.115 0.0457603
30.15 0.00446452
30.185 0.0170297
30.22 0.0131981
30.255 0.00731244
30.29 -0.00441018
30.325 0.0345416
30.36 0.0234616
30.395 0.0126001
30.43 0.00652115
30.465 0.0526069
30.5 0.0349188
30.535 -0.00334868
30.57 0.0321309
30.605 0.039318
30.64 0.0250779
30.675 0.0170141
30.71 0.013564
30.745 0.0519383
30.78 0.0388119
30.815 0.0250448
30.85 0.0186505
30.885 0.0284758
30.92 0.0541673
30.955 0.0310204
30.99 -0.001653
31.025 0.00421983
31.06 0.00333443
31.095 0.0113824
31.13 0.000931381
31.165 0.0169754
31.2 0.0309314
31.235 0.0147827
31.27 0.0114781
31.305 0.00976227
31.34 0.0170997
31.375 0.0205702
31.41 -0.0189134
31.445 0.042469
31.48 0.00280413
31.515 0.00318135
31.55 -0.00724617
31.585 0.0138413
31.62 0.0403935
31.655 0.0215507
31.69 -0.0124061
31.725 -0.00463045
31.76 -0.00163657
31.795 -0.00205911
31.83 0.00871569
31.865 -0.0135453
31.9 0.0241906
31.935 0.0126793
31.97 0.0281603
32.005 0.0408521
32.04 0.0227805
32.075 0.0218692
32.11 0.00911751
32.145 0.0263628
32.18 0.0183008
32.215 0.00591448
32.25 0.00698422
32.285 -0.0120481
32.32 0.0044877
32.355 -0.0191002
32.39 -0.0183527
32.425 0.00211413
32.46 0.0199718
32.495 0.0249637
32.53 0.0419298
32.565 0.0683304
32.6 0.0575531
32.635 0.0537486
32.67 0.0861086
32.705 0.0452148
32.74 0.053961
32.775 0.0604576
32.81 0.0638925
32.845 0.0566577
32.88 0.0517346
32.915 0.0535737
32.95 0.0640577
32.985 0.0957851
33.02 0.0409283
33.055 0.0542931
33.09 0.0692286
33.125 0.0926631
33.16 0.0828021
33.195 0.0944157
33.23 0.116083
33.265 0.121678
33.3 0.080322
33.335 0.079656
33.37 0.0887371
33.405 0.0673861
33.44 0.0541151
33.475 0.0623819
33.51 0.0521688
33.545 0.0459884
33.58 0.0582805
33.615 0.0158154
33.65 0.0279198
33.685 0.0161461
33.72 0.0288421
33.755 0.0143959
33.79 0.0419895
33.825 0.0350071
33.86 0.0131044
33.895 0.0425461
33.93 0.0553844
33.965 0.0602309
34 0.076413
34.035 0.0699425
34.07 0.0628112
34.105 0.0465677
34.14 0.0230116
34.175 0.0397415
34.21 0.00520733
34.245 -0.00177165
34.28 -0.0102943
34.315 -0.0138023
34.35 0.00529798
34.385 0.0135392
34.42 -0.00339525
34.455 0.00754457
34.49 -0.00203807
34.525 0.0104708
34.56 -0.0015263
34.595 -0.00880879
34.63 -0.0111077
34.665 0.00248867
34.7 -0.0080826
34.735 -0.00996406
34.77 0.000666877
34.805 -0.00116674
34.84 0.0148891
34.875 0.012209
34.91 0.0284211
34.945 0.0283352
34.98 0.00251858
35.015 0.00898701
35.05 0.0183673
35.085 -0.00433332
35.12 -0.00105005
35.155 0.00956888
35.19 -0.00821937
35.225 0.00766546
35.26 0.00236931
35.295 0.00177777
35.33 -0.00160333
35.365 -0.0147706
35.4 -0.0155711
35.435 0.0127064
35.47 -0.00428166
35.505 -0.0230706
35.54 -0.0166941
35.575 0.0222433
35.61 -0.0151874
35.645 -0.00256501
35.68 -0.011492
35.715 0.0105934
35.75 0.00287051
35.785 0.023373
35.82 0.0193158
35.855 0.00360473
35.89 -0.0185382
35.925 -0.0217445
35.96 -0.0100321
35.995 -0.000592207
36.03 -0.00162228
36.065 0.00763619
36.1 -0.0189671
36.135 0.0249404
36.17 -0.00572224
36.205 0.01305
36.24 -0.0100345
36.275 0.00985844
36.31 0.00894143
36.345 -0.000284466
36.38 0.0142649
36.415 0.00283647
36.45 0.0102848
36.485 0.0358845
36.52 0.0102494
36.555 0.0143922
36.59 0.0363139
36.625 0.0271285
36.66 0.0259275
36.695 0.0356305
36.73 0.0168383
36.765 0.0342519
36.8 0.0380169
36.835 0.0329252
36.87 0.033972
36.905 0.0505783
36.94 0.0604516
36.975 0.0785304
37.01 0.0949518
37.045 0.1209
37.08 0.127433
37.115 0.130834
37.15 0.107373
37.185 0.0883006
37.22 0.0595656
37.255 0.0397059
37.29 0.0188991
37.325 0.0303533
37.36 0.0179188
37.395 0.0468722
37.43 0.0168099
37.465 0.0307721
37.5 0.0353232
37.535 0.022018
37.57 0.0384437
37.605 0.0435459
37.64 0.060871
37.675 0.0543323
37.71 0.0725253
37.745 0.0743864
37.78 0.0870407
37.815 0.107364
37.85 0.103763
37.885 0.133045
37.92 0.0938872
37.955 0.129568
37.99 0.111434
38.025 0.0899069
38.06 0.0531654
38.095 0.0412748
38.13 0.0406596
38.165 0.0287064
38.2 0.00439902
38.235 0.00458399
38.27 0.0193783
38.305 0.023247
38.34 0.0131091
38.375 0.0180745
38.41 0.00477693
38.445 -0.00557192
38.48 -0.0149689
38.515 -0.00792426
38.55 0.00998922
38.585 0.000623535
38.62 0.000440604
38.655 0.0108671
38.69 -0.0213703
38.725 0.0246981
38.76 0.000834328
38.795 0.00804164
38.83 -0.0174754
38.865 0.00510555
38.9 0.0116245
38.935 -0.0112129
38.97 -0.00709664
39.005 0.013584
39.04 -0.00917731
39.075 -0.0209523
39.11 0.0137769
39.145 0.0232292
39.18 0.00750017
39.215 0.00392638
39.25 0.00706831
39.285 0.0229663
39.32 0.0133608
39.355 0.0083867
39.39 0.00881655
39.425 0.0187075
39.46 0.00777929
39.495 0.0223179
39.53 -0.00572136
39.565 0.0147229
39.6 0.00685769
39.635 0.0130479
39.67 0.0119924
39.705 -0.00866028
39.74 0.0117317
39.775 0.0118557
39.81 0.000581759
39.845 0.0301625
39.88 0.0357481
39.915 0.0546892
39.95 0.0478188
39.985 0.0426902
40.02 0.061514
40.055 0.0575867
40.09 0.0495557
40.125 0.0270691
40.16 0.0372814
40.195 0.0331737
40.23 0.0379538
40.265 0.0159727
40.3 0.0078239
40.335 0.0144468
40.37 0.0130786
40.405 0.0116003
40.44 -0.000591955
40.475 0.0240563
40.51 -0.00875248
40.545 0.0263391
40.58 -0.00153525
40.615 0.0183764
40.65 0.0133904
40.685 0.00584869
40.72 0.0128726
40.755 0.0221696
40.79 -1.30771e-05
40.825 0.00906338
40.86 -0.00509941
40.895 0.0132465
40.93 0.0126521
40.965 0.00744039
41 0.00229292
41.035 0.0178422
41.07 -0.0122974
41.105 0.0094112
41.14 0.0142184
41.175 -0.00332909
41.21 0.0064434
41.245 0.00945199
41.28 0.0220731
41.315 0.0201676
41.35 0.0108873
41.385 0.0138788
41.42 0.0151821
41.455 0.00814726
41.49 0.0200853
41.525 0.0293151
41.56 0.0233072
41.595 0.0461637
41.63 0.0270035
41.665 0.0477335
41.7 0.0417775
41.735 0.0189613
41.77 0.0214359
41.805 0.024042
41.84 0.0175495
41.875 -0.00869439
41.91 0.00734223
41.945 -0.00375581
41.98 -0.0138941
42.015 0.00297309
42.05 0.0183001
42.085 -0.0244927
42.12 -0.007556
42.155 0.000516799
42.19 -0.00480187
42.225 -0.00885642
42.26 -0.0201777
42.295 -0.0059671
42.33 0.00569387
42.365 0.0174147
42.4 0.00598505
42.435 0.050411
42.47 0.0376686
42.505 0.0336568
42.54 0.0177273
42.575 -0.0206937
42.61 0.00588149
42.645 0.0060787
42.68 0.00211412
42.715 0.00276152
42.75 -0.005952
42.785 -0.0240093
42.82 -0.0054253
42.855 -0.00992115
42.89 0.00403162
42.925 -0.0137366
42.96 0.0139513
42.995 0.025385
43.03 0.0268238
43.065 0.0200374
43.1 0.0357974
43.135 0.0746787
43.17 0.0395695
43.205 0.0514011
43.24 0.0244849
43.275 0.0126313
43.31 0.0119034
43.345 -0.0056027
43.38 -0.0121195
43.415 -0.000649722
43.45 -0.0175598
43.485 -0.0163286
43.52 -0.00730567
43.555 -0.0134073
43.59 0.00930058
43.625 0.00339365
43.66 0.0354766
43.695 0.0327388
43.73 0.0139016
43.765 0.0317974
43.8 0.0493375
43.835 0.0642812
43.87 0.0340616
43.905 0.0436335
43.94 0.0657151
43.975 0.0271169
44.01 0.0141518
44.045 0.00654505
44.08 0.0099933
44.115 -0.0157322
44.15 0.0301074
44.185 0.00430098
44.22 0.00698287
44.255 0.00233621
44.29 -0.0131205
44.325 0.0183819
44.36 -0.00681495
44.395 -0.00570621
44.43 -0.00167013
44.465 0.00856228
44.5 -0.0248983
44.535 -0.00327063
44.57 0.00774005
44.605 0.00499918
44.64 -0.00326701
44.675 0.0164476
44.71 0.00263861
44.745 0.00788896
44.78 -0.00222922
44.815 -0.010613
44.85 0.0154694
44.885 0.0205727
44.92 0.0313756
44.955 0.0462462
44.99 0.0460524
45.025 0.0296454
45.06 0.0384829
45.095 0.0394289
45.13 0.0448178
45.165 0.05916
45.2 0.0787584
45.235 0.062696
45.27 0.0776493
45.305 0.0889433
45.34 0.0679714
45.375 0.0774807
45.41 0.0707784
45.445 0.0473202
45.48 0.0453997
45.515 0.0564538
45.55 0.064775
45.585 0.0395615
45.62 0.0242082
45.655 0.0443355
45.69 0.0268979
45.725 0.0353611
45.76 0.0350992
45.795 0.0392437
45.83 0.0537437
45.865 0.0470484
45.9 0.0437811
45.935 0.074913
45.97 0.0683654
46.005 0.105506
46.04 0.1491
46.075 0.131258
46.11 0.143621
46.145 0.130316
46.18 0.176137
46.215 0.173802
46.25 0.159238
46.285 0.183559
46.32 0.207371
46.355 0.18857
46.39 0.215571
46.425 0.229487
46.46 0.194906
46.495 0.202158
46.53 0.162466
46.565 0.195174
46.6 0.153336
46.635 0.155682
46.67 0.17801
46.705 0.135562
46.74 0.145186
46.775 0.14842
46.81 0.140601
46.845 0.0781237
46.88 0.0834308
46.915 0.0788401
46.95 0.0647058
46.985 0.0487781
47.02 0.0423267
47.055 0.0327674
47.09 0.0135096
47.125 0.0241732
47.16 0.0292455
47.195 0.0211688
47.23 -0.002338
47.265 0.0376664
47.3 0.014336
47.335 0.0321301
47.37 0.0140122
47.405 0.000983903
47.44 0.0259285
47.475 0.0114455
47.51 0.0272622
47.545 0.0244523
47.58 0.0205731
47.615 0.034762
47.65 0.037043
47.685 0.0532194
47.72 0.0655223
47.755 0.0939762
47.79 0.153623
47.825 0.190115
47.86 0.253015
47.895 0.307566
47.93 0.32991
47.965 0.326602
48 0.332766
48.035 0.265891
48.07 0.235327
48.105 0.163853
48.14 0.13218
48.175 0.0981656
48.21 0.0605749
48.245 0.0562776
48.28 0.0497022
48.315 0.0361965
48.35 0.0541788
48.385 0.0505998
48.42 0.0479805
48.455 0.0594612
48.49 0.0649387
48.525 0.0738072
48.56 0.0763458
48.595 0.0738864
48.63 0.0779715
48.665 0.0545082
48.7 0.0505868
48.735 0.058277
48.77 0.0334139
48.805 0.0203906
48.84 0.0248326
48.875 0.0200552
48.91 0.00341869
48.945 -0.00756019
48.98 -0.00635809
49.015 -0.00224407
49.05 -0.0034403
49.085 0.00020652
49.12 0.0100547
49.155 0.000197757
49.19 0.0045581
49.225 0.00629277
49.26 0.00481098
49.295 0.00323769
49.33 0.0185861
49.365 0.0194505
49.4 0.00167573
49.435 0.0148227
49.47 -0.00396542
49.505 0.00266745
49.54 -0.00317734
49.575 -0.0184218
49.61 -0.009695
49.645 0.00607573
49.68 -0.00801933
49.715 -0.00691103
49.75 -0.0128559
49.785 -0.00588934
49.82 -0.00288784
49.855 -0.000192714
49.89 0.00420969
49.925 -0.00306494
49.96 0.00873902
49.995 0.0159419
50.03 0.0325253
50.065 0.0569155
50.1 0.0642323
50.135 0.0715405
50.17 0.0637457
50.205 0.0766661
50.24 0.0618278
50.275 0.0279547
50.31 0.0412404
50.345 0.0300706
50.38 0.0253324
50.415 0.0100313
50.45 -0.0011864
50.485 0.0068963
50.52 0.00357273
50.555 -0.0142146
50.59 -0.00539189
50.625 -0.0177758
50.66 -0.00739982
50.695 -0.001219
50.73 -0.0178859
50.765 -0.0142591
50.8 -0.0149539
50.835 -0.00604981
50.87 -0.0153619
50.905 -0.00421428
50.94 -0.00785648
50.975 -0.0206791
51.01 0.00310518
51.045 -0.0229281
51.08 -0.0148802
51.115 -0.000843871
51.15 -0.00613503
51.185 -0.0138137
51.22 -0.0129716
51.255 -0.0123192
51.29 0.00423345
51.325 -0.00640748
51.36 -0.00627804
51.395 0.0135054
51.43 -0.0218532
51.465 -0.00733197
51.5 -0.00548094
51.535 -0.00370368
51.57 -0.0108843
51.605 0.00159011
51.64 0.00181956
51.675 -0.0170381
51.71 -0.00548457
51.745 0.00170258
51.78 -0.0182642
51.815 -0.00543321
51.85 -0.004451
51.885 0.013419
51.92 -0.0217518
51.955 -0.0122349
51.99 0.00358711
52.025 -0.00896044
52.06 -0.00447101
52.095 -0.0120707
52.13 -0.0060452
52.165 -0.00846412
52.2 -0.00979878
52.235 -0.0089751
52.27 0.00171184
52.305 0.00722293
52.34 0.0137286
52.375 -0.00245472
52.41 0.00618269
52.445 0.00567664
52.48 0.00908338
52.515 0.00525465
52.55 0.0035811
52.585 0.011624
52.62 0.00937476
52.655 -0.00447063
52.69 0.00937912
52.725 0.000558389
52.76 -0.00484907
52.795 -0.0172082
52.83 -0.0192505
52.865 0.00559091
52.9 -0.00660411
52.935 0.00985412
52.97 0.00839039
53.005 0.00148587
53.04 0.0160199
53.075 -0.0223489
53.11 0.0213086
53.145 -0.000411128
53.18 0.0117525
53.215 0.00166565
53.25 0.00192954
53.285 0.01498
53.32 0.00518827
53.355 0.0132768
53.39 0.0140911
53.425 0.0239845
53.46 0.0155014
53.495 0.0275259
53.53 0.042686
53.565 0.0388779
53.6 0.0407253
53.635 0.0691982
53.67 0.0714041
53.705 0.0701241
53.74 0.0550441
53.775 0.0383742
53.81 0.0391011
53.845 0.0309771
53.88 0.0373261
53.915 0.050317
53.95 0.0290102
53.985 0.0261781
54.02 0.0454336
54.055 0.0536193
54.09 0.0430331
54.125 0.0405735
54.16 0.0456883
54.195 0.0474865
54.23 0.0415328
54.265 0.0396647
54.3 0.0527061
54.335 0.0466364
54.37 0.0394188
54.405 0.0292793
54.44 0.0538043
54.475 0.0552575
54.51 0.0499583
54.545 0.0498694
54.58 0.0285038
54.615 0.0252405
54.65 0.028545
54.685 0.0239685
54.72 0.0232141
54.755 0.0156448
54.79 0.0157503
54.825 0.00745832
54.86 0.00964022
54.895 -0.000454808
54.93 0.0178968
54.965 -0.00991333
55 -0.00408273
55.035 0.00250767
55.07 0.01249
55.105 -0.00839264
55.14 0.00199958
55.175 -0.00557764
55.21 -0.00904047
55.245 0.00858458
55.28 -0.00887449
55.315 -0.00617397
55.35 0.00611691
55.385 -0.021838
55.42 -0.0105388
55.455 0.00227557
55.49 -0.000288788
55.525 -0.00197548
55.56 0.00214041
55.595 0.00337719
55.63 0.00735865
55.665 -0.00185542
55.7 -0.0032945
55.735 0.0120398
55.77 -0.000977993
55.805 0.0134794
55.84 -0.0115396
55.875 -0.00241089
55.91 -0.001933
55.945 0.00875864
55.98 0.0136722
56.015 -0.005319
56.05 -0.00227366
56.085 -0.00210283
56.12 0.00571802
56.155 0.0324719
56.19 0.0282281
56.225 0.0294637
56.26 0.0339486
56.295 0.0429946
56.33 0.0351274
56.365 0.0332011
56.4 0.039231
56.435 0.0471726
56.47 0.0493328
56.505 0.0576874
56.54 0.0319854
56.575 0.0454396
56.61 0.0489314
56.645 0.0317272
56.68 0.0209953
56.715 0.0145806
56.75 -0.00288978
56.785 0.00642191
56.82 0.00957527
56.855 -0.00515845
56.89 0.00937377
56.925 0.0319307
56.96 0.0147971
56.995 -0.0164545
57.03 0.00913606
57.065 0.00654882
57.1 -0.0100355
57.135 0.00810681
57.17 -0.000222867
57.205 -0.0143499
57.24 -0.00524551
57.275 0.00941278
57.31 0.00159403
57.345 -0.00309987
57.38 -0.00221194
57.415 -0.00886794
57.45 0.0102218
57.485 0.00092984
57.52 0.00499733
57.555 -0.00368411
57.59 -0.00603765
57.625 0.00150496
57.66 0.0116067
57.695 0.00942411
57.73 0.00586132
57.765 0.0066541
57.8 0.00579278
57.835 0.0118685
57.87 0.0177834
57.905 0.0378319
57.94 0.0311626
57.975 0.0224967
58.01 0.0361156
58.045 0.0502168
58.08 0.0471541
58.115 0.0865456
58.15 0.100275
58.185 0.135938
58.22 0.18591
58.255 0.225075
58.29 0.267508
58.325 0.315673
58.36 0.338959
58.395 0.293015
58.43 0.31071
58.465 0.242949
58.5 0.207323
58.535 0.207059
58.57 0.143842
58.605 0.104275
58.64 0.0846842
58.675 0.0666962
58.71 0.0620243
58.745 0.0433914
58.78 0.0295268
58.815 0.0375193
58.85 0.0312009
58.885 0.0392572
58.92 0.0252803
58.955 0.0141882
58.99 0.0125916
59.025 0.0173448
59.06 0.0197657
59.095 0.00251931
59.13 0.01828
59.165 0.0285431
59.2 0.0172623
59.235 0.00425693
59.27 0.0147428
59.305 0.00882153
59.34 0.00691095
59.375 0.00606236
59.41 0.00209397
59.445 0.0152508
59.48 0.0183892
59.515 -0.00550147
59.55 -0.00346054
59.585 0.0131959
59.62 0.0382171
59.655 0.031017
59.69 0.0246281
59.725 0.0294215
59.76 0.0320589
59.795 0.0318071
59.83 0.0163467
59.865 0.0411437
59.9 0.0435809
59.935 0.00841005
59.97 0.0296159
60.005 0.00983929
60.04 0.0169745
60.075 0.0199155
60.11 0.0112603
60.145 0.0314741
60.18 0.0592524
60.215 0.0867442
60.25 0.111751
60.285 0.161362
60.32 0.167785
60.355 0.133494
60.39 0.093964
60.425 0.071436
60.46 0.045463
60.495 0.0307037
60.53 0.0297748
60.565 0.0186955
60.6 -0.00118966
60.635 0.00375893
60.67 0.00431941
60.705 0.00132755
60.74 0.0138702
60.775 -0.00510821
60.81 -0.0120731
60.845 0.00199038
60.88 -0.00642117
60.915 -0.0119813
60.95 0.00826322
60.985 0.00743086
61.02 0.00985139
61.055 0.0047694
61.09 -0.00819269
61.125 -0.00245852
61.16 0.0104621
61.195 0.00764157
61.23 -0.0126468
61.265 -0.00522668
61.3 0.00509199
61.335 0.0042342
61.37 -0.00579279
61.405 0.00714216
61.44 -0.00498446
61.475 -0.0024051
61.51 0.0146428
61.545 0.0329515
61.58 0.00300274
61.615 0.0104543
61.65 0.0067676
61.685 0.0237516
61.72 -0.012926
61.755 0.0105912
61.79 0.0113898
61.825 -0.00691356
61.86 0.00810219
61.895 -0.0048854
61.93 0.00754317
61.965 0.00172537
62 -0.00119114
62.035 -0.00144462
62.07 -0.00671159
62.105 -0.00626898
62.14 -0.00697107
62.175 0.0107477
62.21 0.0251133
62.245 0.0157392
62.28 -0.0158449
62.315 -0.00917239
62.35 0.0022825
62.385 -0.00487675
62.42 0.0140924
62.455 -0.000453977
62.49 0.00289199
62.525 0.00364914
62.56 -0.00744918
62.595 -0.00398313
62.63 0.0129181
62.665 0.00789255
62.7 0.00453149
62.735 0.000208418
62.77 0.0127035
62.805 0.0114274
62.84 0.0102415
62.875 0.00931197
62.91 -0.00468657
62.945 0.028739
62.98 0.00453258
63.015 -0.00142224
63.05 0.000735319
63.085 0.0166792
63.12 -0.00460087
63.155 0.00709509
63.19 -0.00625272
63.225 0.0136025
63.26 -0.00290641
63.295 0.0116818
63.33 0.0210703
63.365 -0.0120702
63.4 0.0111266
63.435 0.0210695
63.47 0.0148789
63.505 0.0262153
63.54 0.0224402
63.575 0.0331765
63.61 0.0415321
63.645 0.0486564
63.68 0.0421013
63.715 0.0348414
63.75 0.0123426
63.785 0.0168717
63.82 0.0453455
63.855 0.0190895
63.89 0.016479
63.925 0.0158269
63.96 0.0180669
63.995 0.0128834
64.03 0.0212798
64.065 0.02031
64.1 0.0126019
64.135 0.00228575
64.17 0.00199081
64.205 -0.00113553
64.24 0.0129315
64.275 -0.00180753
64.31 0.012455
64.345 -0.0123431
64.38 0.0123642
64.415 0.00251951
64.45 0.00458391
64.485 -0.00221438
64.52 0.007224
64.555 0.00323122
64.59 0.000317528
64.625 -0.0107373
64.66 -0.00356959
64.695 -0.00696696
64.73 -0.00954387
64.765 0.0144301
64.8 -0.00551227
64.835 0.00500066
64.87 0.0252767
64.905 -0.00191604
64.94 -0.00503014
64.975 0.00110172
65.01 0.00606393
65.045 -0.0134426
65.08 -0.00738006
65.115 0.0023744
65.15 -0.0024655
65.185 -0.0025448
65.22 -0.0117211
65.255 -0.00581765
65.29 -0.00847241
65.325 -0.013092
65.36 -0.00234592
65.395 -0.0195969
65.43 -0.0174105
65.455 -0.0196303