File: data/xrd/xy/2019-06-18T20_49_29.598214+00_00_LBL_A1.xy
'Id: "" Comment: "Integrate frame neopen_trifluo_02_001.gfrmwith cursor Wedge Cursor #2" Operator: "UC Berkeley" Anode: "Co" Scantype: "TwoTheta" TimePerStep: "700"
13.595 -0.0230118
13.635 0.0445003
13.675 0.00101494
13.715 -0.00529158
13.755 0.0713707
13.795 0.00650379
13.835 0.0264694
13.875 -0.0053922
13.915 -0.0151057
13.955 0.0242455
13.995 0.0463417
14.035 0.0217825
14.075 0.0279545
14.115 0.0510577
14.155 0.0339729
14.195 0.0465382
14.235 0.0524178
14.275 0.0478833
14.315 -0.00049541
14.355 0.0375266
14.395 0.0469657
14.435 0.0675404
14.475 0.093676
14.515 0.0826038
14.555 0.108707
14.595 0.137865
14.635 0.184666
14.675 0.162856
14.715 0.16057
14.755 0.114221
14.795 0.13067
14.835 0.0967399
14.875 0.0284269
14.915 0.0557072
14.955 0.0393389
14.995 0.0180239
15.035 0.0777922
15.075 0.016395
15.115 0.00758336
15.155 -0.0232536
15.195 -0.00683699
15.235 0.0328662
15.275 0.0215494
15.315 0.0356792
15.355 0.0162476
15.395 0.0215423
15.435 0.0287927
15.475 0.0445127
15.515 0.0127616
15.555 0.0276532
15.595 0.00491086
15.635 0.0227616
15.675 0.0164657
15.715 0.00633617
15.755 0.0110497
15.795 0.0231078
15.835 0.0235977
15.875 0.0276146
15.915 0.0326604
15.955 0.0155729
15.995 0.0149375
16.035 0.0187859
16.075 0.00617625
16.115 0.0483869
16.155 0.0632651
16.195 0.0274645
16.235 -0.00353291
16.275 0.0452451
16.315 0.0558221
16.355 0.0490821
16.395 0.0533716
16.435 0.0221773
16.475 0.0356917
16.515 0.0167097
16.555 0.0334275
16.595 0.00469017
16.635 0.0360214
16.675 -0.00305939
16.715 0.0212987
16.755 0.0156618
16.795 0.0132863
16.835 0.015493
16.875 0.0153752
16.915 0.0467769
16.955 0.0389469
16.995 0.0197107
17.035 0.0394815
17.075 0.0558063
17.115 0.04175
17.155 0.017596
17.195 0.0129384
17.235 0.0672868
17.275 0.0098146
17.315 0.0382395
17.355 0.0215004
17.395 -0.0102462
17.435 0.0319073
17.475 0.0195076
17.515 0.0262005
17.555 0.025333
17.595 0.0301613
17.635 0.0198874
17.675 -0.0200914
17.715 0.0393692
17.755 -0.00331541
17.795 0.0218398
17.835 0.0503493
17.875 0.0184433
17.915 0.0301161
17.955 0.0210989
17.995 0.0319271
18.035 0.0541139
18.075 0.0581616
18.115 0.0195198
18.155 0.0433903
18.195 0.0224932
18.235 0.0467942
18.275 0.0135254
18.315 0.0254777
18.355 0.014701
18.395 0.0327716
18.435 0.0335484
18.475 0.0338931
18.515 -0.00974834
18.555 0.0553779
18.595 0.0210298
18.635 0.0122048
18.675 0.0517855
18.715 0.0373334
18.755 0.0462448
18.795 0.0171109
18.835 0.0142849
18.875 0.0395769
18.915 0.0503
18.955 0.0311052
18.995 0.0557248
19.035 0.0420828
19.075 0.0621892
19.115 0.0358101
19.155 0.046124
19.195 0.0742275
19.235 0.0381905
19.275 0.0336958
19.315 -0.0220639
19.355 0.056993
19.395 0.0559293
19.435 0.0472134
19.475 0.0333011
19.515 0.0560541
19.555 0.0180893
19.595 0.0499184
19.635 0.0508271
19.675 0.0565763
19.715 0.073422
19.755 0.0354577
19.795 0.0320718
19.835 0.0259015
19.875 0.0283449
19.915 0.0659403
19.955 0.0684655
19.995 0.0371433
20.035 0.0257446
20.075 0.00331339
20.115 0.0590588
20.155 0.050811
20.195 0.016894
20.235 0.0707947
20.275 0.032821
20.315 0.0472149
20.355 0.0494875
20.395 0.0500598
20.435 0.0541391
20.475 0.0563535
20.515 0.0429275
20.555 0.0309361
20.595 0.0415044
20.635 0.0522099
20.675 0.0191546
20.715 0.0408486
20.755 0.0212376
20.795 0.0552336
20.835 0.0590742
20.875 0.0439068
20.915 0.0624879
20.955 0.0629883
20.995 0.0655386
21.035 0.0315529
21.075 0.0534798
21.115 0.0278951
21.155 0.0561371
21.195 0.0264967
21.235 0.0355814
21.275 0.0176068
21.315 0.0176682
21.355 0.0868732
21.395 -0.00308542
21.435 -0.00263373
21.475 0.0383482
21.515 0.0381639
21.555 0.0656469
21.595 0.0552741
21.635 0.0710629
21.675 0.067655
21.715 0.031393
21.755 0.0361083
21.795 0.0180533
21.835 0.0317768
21.875 0.0343234
21.915 0.0462256
21.955 0.0276272
21.995 0.0125768
22.035 0.0676579
22.075 0.0459445
22.115 0.0647364
22.155 0.0324125
22.195 0.0674077
22.235 0.0517497
22.275 0.0173345
22.315 0.00707264
22.355 0.0256541
22.395 0.0553848
22.435 0.0328033
22.475 0.020388
22.515 0.0286986
22.555 0.017842
22.595 0.045061
22.635 0.0723377
22.675 0.0414002
22.715 0.0420235
22.755 0.0230508
22.795 0.0225455
22.835 0.06222
22.875 0.0652971
22.915 0.0426247
22.955 0.035335
22.995 0.022046
23.035 0.0200791
23.075 0.0131994
23.115 0.0416548
23.155 -0.00494852
23.195 0.00993171
23.235 0.0452375
23.275 0.00521395
23.315 0.0358754
23.355 0.0569542
23.395 0.00703673
23.435 -0.0254644
23.475 -0.00959864
23.515 0.042608
23.555 0.0305426
23.595 -0.000391079
23.635 0.051488
23.675 0.010741
23.715 -0.0026205
23.755 0.0358492
23.795 0.0367382
23.835 0.0205328
23.875 0.0355842
23.915 0.0214103
23.955 0.0214728
23.995 0.0449096
24.035 0.0428375
24.075 0.0427001
24.115 0.00796989
24.155 0.065589
24.195 0.015841
24.235 0.0560046
24.275 0.0444112
24.315 0.0355348
24.355 0.0501012
24.395 -0.0109176
24.435 0.0090937
24.475 0.00507125
24.515 -0.000973777
24.555 0.030859
24.595 0.00556048
24.635 0.0353078
24.675 0.0229863
24.715 -0.0116807
24.755 0.0239472
24.795 0.000646319
24.835 -0.0101125
24.875 0.0287976
24.915 0.0457439
24.955 0.00279891
24.995 0.0183957
25.035 0.0434377
25.075 0.00768393
25.115 0.0262588
25.155 0.0606392
25.195 0.0339641
25.235 0.0502409
25.275 0.0334616
25.315 0.0481318
25.355 0.0168791
25.395 0.0325544
25.435 0.0474697
25.475 0.00650745
25.515 0.0153817
25.555 0.0433121
25.595 0.0599032
25.635 0.0533925
25.675 0.0235141
25.715 0.051316
25.755 -0.0171851
25.795 0.00234097
25.835 0.0183117
25.875 -0.00128567
25.915 0.0214985
25.955 0.0224534
25.995 0.0388016
26.035 0.0279771
26.075 0.0269699
26.115 0.0468422
26.155 0.0959998
26.195 0.0954885
26.235 0.150801
26.275 0.0982993
26.315 0.0933619
26.355 0.0565996
26.395 0.029719
26.435 0.0539285
26.475 0.0302846
26.515 0.0143005
26.555 0.0712289
26.595 0.0484358
26.635 0.0546201
26.675 0.0775729
26.715 0.0697463
26.755 0.0548051
26.795 0.0516113
26.835 0.0653565
26.875 0.0747742
26.915 0.0513963
26.955 0.092902
26.995 0.116118
27.035 0.120309
27.075 0.278218
27.115 0.498769
27.155 0.762324
27.195 1.02278
27.235 1.2123
27.275 1.11753
27.315 0.844253
27.355 0.461697
27.395 0.235756
27.435 0.124613
27.475 0.122279
27.515 0.0911074
27.555 0.0707055
27.595 0.0514753
27.635 0.051452
27.675 0.0607618
27.715 0.0770335
27.755 0.0614412
27.795 0.0650177
27.835 0.0690146
27.875 0.0649618
27.915 0.090453
27.955 0.116831
27.995 0.0806144
28.035 0.0584465
28.075 0.0800946
28.115 0.0493604
28.155 0.0273069
28.195 0.0271467
28.235 -0.00134602
28.275 0.0225147
28.315 0.0103379
28.355 0.0131136
28.395 0.0203602
28.435 -0.000584027
28.475 -0.00220024
28.515 0.0297539
28.555 0.0185481
28.595 -0.00486413
28.635 -0.00629727
28.675 0.0126557
28.715 0.0104533
28.755 0.00400774
28.795 0.0793812
28.835 0.0608531
28.875 0.134285
28.915 0.119271
28.955 0.145739
28.995 0.207186
29.035 0.19019
29.075 0.173122
29.115 0.165124
29.155 0.195676
29.195 0.133985
29.235 0.118326
29.275 0.0883645
29.315 0.112001
29.355 0.0965994
29.395 0.093074
29.435 0.087286
29.475 0.0838331
29.515 0.0874997
29.555 0.11883
29.595 0.134408
29.635 0.156161
29.675 0.125535
29.715 0.160885
29.755 0.163861
29.795 0.17807
29.835 0.147246
29.875 0.180927
29.915 0.248728
29.955 0.356983
29.995 0.589978
30.035 1.0603
30.075 1.72993
30.115 2.3771
30.155 2.77093
30.195 2.49392
30.235 1.91985
30.275 1.26814
30.315 0.693124
30.355 0.414722
30.395 0.26778
30.435 0.164159
30.475 0.170149
30.515 0.0963908
30.555 0.069107
30.595 0.0596061
30.635 0.0583769
30.675 0.0580545
30.715 0.040885
30.755 0.0607318
30.795 0.0698817
30.835 0.0436531
30.875 0.0655951
30.915 0.0354797
30.955 0.0586922
30.995 0.0248222
31.035 0.0499374
31.075 0.0332645
31.115 0.0331725
31.155 0.060015
31.195 0.0492412
31.235 0.0508784
31.275 0.0781074
31.315 0.0915063
31.355 0.086832
31.395 0.0875004
31.435 0.0821939
31.475 0.095921
31.515 0.098881
31.555 0.0653412
31.595 0.0674295
31.635 0.0754527
31.675 0.0401062
31.715 0.00974105
31.755 0.00736064
31.795 0.0145621
31.835 0.00108049
31.875 0.0201693
31.915 0.0148915
31.955 -0.00132509
31.995 0.0187468
32.035 0.00742178
32.075 0.019126
32.115 -0.00818398
32.155 0.00686969
32.195 -0.00678083
32.235 0.0209136
32.275 0.00848353
32.315 0.00858759
32.355 0.00147898
32.395 -0.00553433
32.435 -0.0107686
32.475 -0.00590687
32.515 0.00555767
32.555 0.00949726
32.595 -0.00867462
32.635 0.00852404
32.675 0.0246039
32.715 0.0617077
32.755 0.0732039
32.795 0.0875715
32.835 0.0881077
32.875 0.124705
32.915 0.13401
32.955 0.212943
32.995 0.223664
33.035 0.212752
33.075 0.181493
33.115 0.141148
33.155 0.140864
33.195 0.107991
33.235 0.116809
33.275 0.0928013
33.315 0.095923
33.355 0.10147
33.395 0.0694304
33.435 0.0831599
33.475 0.0590867
33.515 0.0627615
33.555 0.070388
33.595 0.0707281
33.635 0.0374061
33.675 0.0161739
33.715 0.0393353
33.755 0.0588386
33.795 0.0412178
33.835 0.034302
33.875 0.0344934
33.915 0.02452
33.955 0.0559431
33.995 0.0627585
34.035 0.0848832
34.075 0.0740946
34.115 0.0990656
34.155 0.10889
34.195 0.09964
34.235 0.153731
34.275 0.200661
34.315 0.233527
34.355 0.373522
34.395 0.610101
34.435 0.964978
34.475 1.3956
34.515 1.78761
34.555 1.70625
34.595 1.3502
34.635 0.941142
34.675 0.618041
34.715 0.409532
34.755 0.265327
34.795 0.18451
34.835 0.129919
34.875 0.134211
34.915 0.0691104
34.955 0.0607384
34.995 0.0491532
35.035 0.067085
35.075 0.0366243
35.115 0.0445538
35.155 0.0473919
35.195 0.0446643
35.235 0.0718829
35.275 0.063573
35.315 0.0317747
35.355 0.0191711
35.395 0.0273825
35.435 0.0425721
35.475 0.0231821
35.515 0.0347791
35.555 0.0560631
35.595 0.0524736
35.635 0.0524369
35.675 0.0432343
35.715 0.0399911
35.755 0.0495019
35.795 0.0617484
35.835 0.0421615
35.875 0.072785
35.915 0.0887647
35.955 0.0929825
35.995 0.100395
36.035 0.114062
36.075 0.0782276
36.115 0.105712
36.155 0.128446
36.195 0.133397
36.235 0.137486
36.275 0.125856
36.315 0.132325
36.355 0.0949229
36.395 0.0662862
36.435 0.0460483
36.475 0.0549055
36.515 0.0458594
36.555 0.0216254
36.595 0.0132569
36.635 0.00704606
36.675 0.00432488
36.715 0.0107345
36.755 0.00957662
36.795 -0.0057752
36.835 -0.00973879
36.875 -0.00761142
36.915 0.000265111
36.955 0.0154641
36.995 0.00275206
37.035 0.00721018
37.075 -0.00875155
37.115 0.000491565
37.155 -0.0165774
37.195 0.000103173
37.235 -0.0129971
37.275 0.00595619
37.315 -0.0086173
37.355 -0.0176949
37.395 0.0226547
37.435 0.0179683
37.475 0.0104663
37.515 0.00815235
37.555 -0.00401934
37.595 -0.0148552
37.635 -0.0100177
37.675 0.00398344
37.715 -0.00641913
37.755 -0.0132939
37.795 0.0147479
37.835 0.0101264
37.875 -0.0076039
37.915 -0.00725147
37.955 -0.000284465
37.995 -0.0107843
38.035 0.000816603
38.075 -0.00298514
38.115 0.0153974
38.155 0.0103308
38.195 -0.00443626
38.235 -0.0111814
38.275 -0.0153345
38.315 0.016866
38.355 0.00449856
38.395 -5.42275e-07
38.435 -0.00373985
38.475 0.00276972
38.515 0.00310115
38.555 0.000962246
38.595 -0.00470482
38.635 0.0143686
38.675 -0.00926947
38.715 -0.0079691
38.755 -0.00336441
38.795 9.37214e-05
38.835 0.00438503
38.875 0.00570014
38.915 -0.00309595
38.955 -0.00463656
38.995 -0.00760096
39.035 0.00597921
39.075 0.00456525
39.115 -0.0109165
39.155 -0.0143302
39.195 -0.00447463
39.235 -0.00333233
39.275 0.00587518
39.315 -0.00148159
39.355 -0.0018027
39.395 0.0130238
39.435 -0.0134721
39.475 0.00218238
39.515 0.0166183
39.555 0.0108607
39.595 0.0167849
39.635 0.0259212
39.675 0.0439898
39.715 0.0710048
39.755 0.084385
39.795 0.135512
39.835 0.19294
39.875 0.312663
39.915 0.382965
39.955 0.438487
39.995 0.464928
40.035 0.443974
40.075 0.387951
40.115 0.312544
40.155 0.235243
40.195 0.157831
40.235 0.0943459
40.275 0.0558607
40.315 0.0510725
40.355 0.0428871
40.395 0.0253782
40.435 0.0168553
40.475 0.0221266
40.515 0.0179603
40.555 0.0136002
40.595 0.0121673
40.635 0.0133324
40.675 0.00554219
40.715 0.00697926
40.755 0.00859511
40.795 -0.00886472
40.835 0.0268805
40.875 -0.00163938
40.915 0.0165471
40.955 0.00238403
40.995 -0.00341196
41.035 -0.00581382
41.075 0.010475
41.115 -0.00995141
41.155 0.00324175
41.195 -0.0201365
41.235 -0.000727223
41.275 -0.00477058
41.315 0.022546
41.355 -0.00786647
41.395 -0.00272458
41.435 0.00226098
41.475 0.0120502
41.515 0.000779173
41.555 0.00210148
41.595 0.015559
41.635 0.0105488
41.675 0.00677535
41.715 0.0155832
41.755 0.00754964
41.795 -0.0053101
41.835 0.0049532
41.875 0.0246791
41.915 -0.00812273
41.955 0.00712191
41.995 -0.00996087
42.035 0.00423317
42.075 0.012417
42.115 0.011564
42.155 0.00501087
42.195 0.00412658
42.235 0.00527044
42.275 -0.000978367
42.315 0.00152109
42.355 0.0102105
42.395 -0.0149833
42.435 -0.00227656
42.475 -0.000634974
42.515 -0.00799209
42.555 -0.00380304
42.595 -0.00590097
42.635 0.0276057
42.675 0.00965978
42.715 -0.0177755
42.755 0.00654802
42.795 0.00116887
42.835 -0.00680323
42.875 -0.00355148
42.915 0.0159031
42.955 -0.0156685
42.995 0.00201671
43.035 0.0212748
43.075 -0.0141048
43.115 0.000746016
43.155 0.028861
43.195 0.00247996
43.235 0.00597004
43.275 -0.00200065
43.315 0.000837445
43.355 0.00442153
43.395 0.0214558
43.435 -0.00801796
43.475 0.00375805
43.515 -0.00459412
43.555 0.00519945
43.595 0.00163207
43.635 0.0067274
43.675 0.00839118
43.715 0.0099104
43.755 0.0158565
43.795 -0.0053694
43.835 0.0133807
43.875 0.0287423
43.915 0.0155909
43.955 0.0475941
43.995 0.0449444
44.035 0.0459659
44.075 0.0478931
44.115 0.0679969
44.155 0.0679469
44.195 0.0550426
44.235 0.053617
44.275 0.0655286
44.315 0.0406339
44.355 0.0474786
44.395 0.031011
44.435 0.00510709
44.475 0.0220839
44.515 0.0135854
44.555 -0.000780248
44.595 0.023224
44.635 -0.00144416
44.675 0.0146885
44.715 -0.00795026
44.755 0.0234577
44.795 0.0259877
44.835 0.0162282
44.875 0.0347491
44.915 0.0667944
44.955 0.0990712
44.995 0.100068
45.035 0.159631
45.075 0.212445
45.115 0.240705
45.155 0.285202
45.195 0.308153
45.235 0.292638
45.275 0.288212
45.315 0.205533
45.355 0.159389
45.395 0.126338
45.435 0.0767646
45.475 0.0703011
45.515 0.046596
45.555 0.0627003
45.595 0.0618036
45.635 0.0630104
45.675 0.0585956
45.715 0.0575164
45.755 0.0858754
45.795 0.112222
45.835 0.149838
45.875 0.22682
45.915 0.354368
45.955 0.545057
45.995 0.904467
46.035 1.36748
46.075 1.85849
46.115 2.39055
46.155 2.76652
46.195 3.02509
46.235 2.85071
46.275 2.55642
46.315 2.06865
46.355 1.60349
46.395 1.11699
46.435 0.773164
46.475 0.533888
46.515 0.342666
46.555 0.210582
46.595 0.110262
46.635 0.0960865
46.675 0.0752958
46.715 0.0366772
46.755 0.0383416
46.795 0.03281
46.835 0.0523443
46.875 0.0102828
46.915 0.0182234
46.955 0.0288229
46.995 0.00933205
47.035 0.0123261
47.075 -0.000788874
47.115 0.00814918
47.155 0.0058243
47.195 -0.00990692
47.235 0.000595655
47.275 0.000589512
47.315 0.00593808
47.355 0.0145062
47.395 0.00116772
47.435 0.00932275
47.475 -0.00847289
47.515 0.0081831
47.555 -0.00199091
47.595 -0.00228063
47.635 -0.00920743
47.675 0.0183685
47.715 0.000575943
47.755 0.00472721
47.795 0.0213464
47.835 0.00521023
47.875 0.022602
47.915 0.00421447
47.955 0.0205817
47.995 0.0163731
48.035 0.018359
48.075 -0.00279
48.115 0.0260168
48.155 0.0287934
48.195 0.0181174
48.235 0.0512449
48.275 0.0436821
48.315 0.0427547
48.355 0.0393809
48.395 0.0502634
48.435 0.0683073
48.475 0.100703
48.515 0.175429
48.555 0.252795
48.595 0.384454
48.635 0.465074
48.675 0.570747
48.715 0.600031
48.755 0.594993
48.795 0.559587
48.835 0.500675
48.875 0.447517
48.915 0.373457
48.955 0.290324
48.995 0.217626
49.035 0.147969
49.075 0.0924577
49.115 0.0664021
49.155 0.0279773
49.195 0.0199203
49.235 -0.00339444
49.275 -0.00122633
49.315 -0.000254758
49.355 0.00630725
49.395 -0.00503116
49.435 0.00421199
49.475 0.00136769
49.515 6.37246e-05
49.555 -0.0106236
49.595 -0.0107409
49.635 0.00139408
49.675 -0.017015
49.715 0.00757234
49.755 -0.000247767
49.795 -4.78996e-05
49.835 -0.0086349
49.875 -0.00379229
49.915 -0.0125753
49.955 -0.0103724
49.995 -0.00896338
50.035 0.00178977
50.075 0.00390841
50.115 0.0015946
50.155 -0.000599823
50.195 -0.00145176
50.235 -0.00923778
50.275 -0.0028528
50.315 -0.00422866
50.355 -0.00820107
50.395 0.00487617
50.435 0.0211651
50.475 0.00598863
50.515 0.00856184
50.555 0.0145772
50.595 0.0233326
50.635 0.00547414
50.675 0.00822105
50.715 0.0178655
50.755 0.0125634
50.795 0.0152229
50.835 0.00313551
50.875 0.00915546
50.915 0.0120581
50.955 0.0196384
50.995 0.00855448
51.035 0.0168943
51.075 0.00319644
51.115 0.0152102
51.155 0.00614526
51.195 0.00805526
51.235 0.013981
51.275 0.00164593
51.315 0.0169603
51.355 -0.0021779
51.395 -0.0124854
51.435 -0.0179208
51.475 -0.00354213
51.515 -0.000968924
51.555 -0.00161768
51.595 0.00333975
51.635 0.00152059
51.675 -0.0117277
51.715 -0.0028951
51.755 0.00538799
51.795 0.00889615
51.835 -0.00329316
51.875 0.00380379
51.915 -0.00968898
51.955 0.00173786
51.995 -0.00438324
52.035 -0.0122049
52.075 0.0068617
52.115 -0.0178188
52.155 -0.00195514
52.195 0.00466668
52.235 -0.00680267
52.275 -0.006074
52.315 -0.00146678
52.355 -0.00297142
52.395 0.00174986
52.435 0.00414986
52.475 -0.00735137
52.515 0.0112073
52.555 0.00353495
52.595 0.0202565
52.635 0.0238599
52.675 0.0394264
52.715 0.0557168
52.755 0.0901166
52.795 0.118829
52.835 0.144143
52.875 0.166521
52.915 0.157377
52.955 0.158678
52.995 0.138384
53.035 0.128283
53.075 0.113818
53.115 0.110789
53.155 0.0694487
53.195 0.0760294
53.235 0.0578103
53.275 0.0500849
53.315 0.0307106
53.355 0.0199971
53.395 0.0225344
53.435 0.00513417
53.475 -0.00071551
53.515 0.00125212
53.555 -0.0177275
53.595 -0.000325699
53.635 0.0025235
53.675 0.00129729
53.715 0.00555517
53.755 0.00814973
53.795 0.0073967
53.835 -0.00105365
53.875 0.00778012
53.915 0.0125905
53.955 0.00839829
53.995 0.0101487
54.035 0.00914124
54.075 0.028792
54.115 0.0157041
54.155 0.0184148
54.195 0.03311
54.235 0.0392783
54.275 0.0714242
54.315 0.0794309
54.355 0.090866
54.395 0.102565
54.435 0.128032
54.475 0.140351
54.515 0.1373
54.555 0.121193
54.595 0.105668
54.635 0.094762
54.675 0.0637748
54.715 0.0676996
54.755 0.025855
54.795 0.0296284
54.835 0.0335945
54.875 0.0259648
54.915 0.0140957
54.955 0.0102055
54.995 0.000128238
55.035 0.00758834
55.075 0.00910774
55.115 -0.001246
55.155 0.00759695
55.195 0.0167756
55.235 0.0108668
55.275 0.0245149
55.315 0.0137152
55.355 0.0101735
55.395 0.0213504
55.435 0.0368404
55.475 0.0153671
55.515 0.0189996
55.555 0.01343
55.595 0.0404744
55.635 0.0186363
55.675 0.0308747
55.715 0.0371974
55.755 0.048116
55.795 0.0686089
55.835 0.0778679
55.875 0.0972347
55.915 0.136089
55.955 0.183678
55.995 0.247919
56.035 0.325708
56.075 0.393422
56.115 0.411215
56.155 0.414838
56.195 0.412247
56.235 0.37371
56.275 0.345303
56.315 0.331384
56.355 0.265975
56.395 0.231757
56.435 0.172733
56.475 0.130351
56.515 0.103782
56.555 0.0686103
56.595 0.0393706
56.635 0.044278
56.675 0.0239146
56.715 0.0195644
56.755 0.0165318
56.795 0.0165829
56.835 0.016878
56.875 0.0182105
56.915 0.0258375
56.955 0.000731299
56.995 0.0184522
57.035 0.0139723
57.075 -0.00436063
57.115 -0.0045062
57.155 -0.00683416
57.195 0.00367251
57.235 0.0130944
57.275 0.0214003
57.315 -0.0123267
57.355 -0.00159808
57.395 0.00762751
57.435 0.000426562
57.475 0.00431116
57.515 0.00942525
57.555 0.00976955
57.595 0.00443662
57.635 0.00616798
57.675 0.0313147
57.715 0.0161301
57.755 0.0144164
57.795 0.0366094
57.835 0.0298218
57.875 0.0354396
57.915 0.0314873
57.955 0.0422261
57.995 0.0389401
58.035 0.042355
58.075 0.0283951
58.115 0.047307
58.155 0.0372331
58.195 0.0227538
58.235 0.0454314
58.275 0.042739
58.315 0.0287437
58.355 0.0227934
58.395 0.0266901
58.435 0.0307652
58.475 0.035109
58.515 0.0451562
58.555 0.0440198
58.595 0.0520885
58.635 0.0806042
58.675 0.10623
58.715 0.133102
58.755 0.17554
58.795 0.243
58.835 0.299171
58.875 0.390182
58.915 0.439933
58.955 0.489493
58.995 0.493783
59.035 0.445731
59.075 0.388044
59.115 0.313191
59.155 0.244816
59.195 0.198109
59.235 0.149026
59.275 0.133553
59.315 0.102425
59.355 0.06234
59.395 0.0867039
59.435 0.0393682
59.475 0.0276889
59.515 0.0321413
59.555 0.0190553
59.595 0.0107898
59.635 0.0300698
59.675 0.0173685
59.715 0.015232
59.755 0.0219394
59.795 0.0161442
59.835 0.0358662
59.875 0.0262552
59.915 0.0307869
59.955 0.0557173
59.995 0.0372804
60.035 0.0489391
60.075 0.0548717
60.115 0.0394022
60.155 0.0576574
60.195 0.0527068
60.235 0.0608559
60.275 0.0564908
60.315 0.0403473
60.355 0.0229052
60.395 0.0307446
60.435 0.0344502
60.475 0.00607782
60.515 0.000818779
60.555 0.0143584
60.595 0.00646667
60.635 -0.00993877
60.675 0.0108671
60.715 -0.00290988
60.755 0.00136315
60.795 -0.00683175
60.835 0.0094728
60.875 0.0120745
60.915 0.0154482
60.955 -0.00575767
60.995 0.0111927
61.035 0.00261263
61.075 0.0152035
61.115 0.0170585
61.155 0.0175874
61.195 0.0167868
61.235 0.0237244
61.275 0.0550603
61.315 0.0734478
61.355 0.102261
61.395 0.144107
61.435 0.150837
61.475 0.165395
61.515 0.172019
61.555 0.155413
61.595 0.152351
61.635 0.135632
61.675 0.153569
61.715 0.175142
61.755 0.183206
61.795 0.164059
61.835 0.157756
61.875 0.134781
61.915 0.0781119
61.955 0.068306
61.995 0.0506658
62.035 0.0227069
62.075 0.0158757
62.115 0.0131262
62.155 0.0104592
62.195 0.0096429
62.235 0.00444434
62.275 0.00263301
62.315 6.66367e-05
62.355 0.0192717
62.395 0.0190965
62.435 0.0437872
62.475 0.0596467
62.515 0.0502433
62.555 0.0759421
62.595 0.101386
62.635 0.0959763
62.675 0.105845
62.715 0.104412
62.755 0.087412
62.795 0.0705341
62.835 0.111261
62.875 0.0959169
62.915 0.0972141
62.955 0.0862612
62.995 0.0836189
63.035 0.057038
63.075 0.051216
63.115 0.0339407
63.155 0.0405219
63.195 0.017967
63.235 0.0272941
63.275 0.0258255
63.315 0.0219694
63.355 0.0278717
63.395 0.0114889
63.435 0.021992
63.475 0.0186375
63.515 -0.0152537
63.555 0.0131757
63.595 0.0145697
63.635 -0.00330453
63.675 -0.00355444
63.715 0.0151242
63.755 0.0246252
63.795 0.0158294
63.835 -0.00369508
63.875 0.0115464
63.915 0.00905455
63.955 0.0119299
63.995 -0.00685033
64.035 0.00547329
64.075 -0.000776314
64.115 0.00749314
64.155 0.00752316
64.195 0.00543651
64.235 0.00962301
64.275 0.00477139
64.315 0.0175921
64.355 0.00222982
64.395 0.0019262
64.435 -0.000314191
64.475 -0.00487167
64.515 0.00119642
64.555 -0.00612427
64.595 -0.00196061
64.635 0.0110181
64.675 0.0137095
64.715 0.0117241
64.755 0.00733452
64.795 0.0161895
64.835 0.00138999
64.875 0.0129775
64.915 0.0122191
64.955 0.00700263
64.995 0.00994618
65.035 0.00576859
65.075 0.010817
65.115 0.0198188
65.155 0.0097869
65.195 -0.00477333
65.235 0.0130818
65.275 0.00413217
65.315 0.0204769
65.355 0.0156158
65.395 0.0047736
65.435 0.0181623
65.475 0.0179011
65.515 0.0152246
65.555 0.0166187
65.595 0.0245297
65.635 0.00982916
65.675 0.0306805
65.715 0.0199737
65.755 0.0144689
65.795 0.0340217
65.835 0.0208675
65.875 0.0240387
65.915 0.0452837
65.955 0.0322422
65.995 0.0267004
66.035 0.0160114
66.075 0.0235388
66.115 0.0266352
66.155 0.033727
66.195 0.0581657
66.235 0.0700094
66.275 0.10355
66.315 0.119428
66.355 0.158216
66.395 0.190584
66.435 0.215
66.475 0.241206
66.515 0.257286
66.555 0.269343
66.595 0.276906
66.635 0.264092
66.675 0.25089
66.715 0.261431
66.755 0.257624
66.795 0.251204
66.835 0.236185
66.875 0.208624
66.915 0.199449
66.955 0.168732
66.995 0.13066
67.035 0.112646
67.075 0.0890922
67.115 0.0933067
67.155 0.0888899
67.195 0.0891018
67.235 0.101103
67.275 0.142761
67.315 0.13648
67.355 0.141021
67.395 0.160084
67.435 0.14386
67.475 0.120889
67.515 0.110955
67.555 0.0881392
67.595 0.0648816
67.635 0.0468692
67.675 0.0464862
67.715 0.03632
67.755 0.0143889
67.795 0.0136627
67.835 0.0128175
67.875 0.0259117
67.915 0.0301079
67.955 0.0134755
67.995 0.0185526
68.035 0.0049196
68.075 0.00210042
68.115 0.0160728
68.155 0.00913326
68.195 -0.00213688
68.235 0.00882604
68.275 0.0208079
68.315 -0.0105856
68.355 -0.00163186
68.395 0.00511275
68.435 -0.00458545
68.475 0.00976295
68.515 0.000920481
68.555 0.00384833
68.595 0.00131565
68.635 0.0121116
68.675 0.00533906
68.715 0.00325145
68.755 -0.00115186
68.795 0.00399109
68.835 0.00488442
68.875 0.00950015
68.915 0.0103679
68.955 0.0082038
68.995 0.00509951
69.035 0.00347284
69.075 -0.00391123
69.115 -0.00410734
69.155 0.00682195
69.195 0.00602863
69.235 0.0099946
69.275 0.0119225
69.315 0.0103618
69.355 0.00614621
69.395 -0.00408385
69.435 0.00199192
69.475 -0.0111148
69.515 -0.00937901
69.555 -0.00672902
69.595 -0.00351154
69.635 0.0105215
69.675 0.00483935
69.715 0.0136121
69.755 -0.00203197
69.795 -0.0127602
69.835 -0.00411434
69.875 0.00175627
69.915 0.00666273
69.955 0.00368086
69.995 -0.00271805
70.035 0.00988462
70.075 0.00663832
70.115 -0.0072195
70.155 -0.00482221
70.195 0.00936768
70.235 -0.00444231
70.275 0.00287467
70.315 0.00581437
70.355 0.0066458
70.395 -0.00384563
70.435 0.00356868
70.475 -0.0112125
70.515 0.0035946
70.555 0.0165097
70.595 0.00699132
70.635 0.00638965
70.675 -0.000917125
70.715 0.00404463
70.755 0.0103247
70.795 -0.00345464
70.835 0.006541
70.875 0.00245169
70.915 0.000427186
70.955 0.0124718
70.995 0.0109405
71.035 0.0118409
71.075 0.0113347
71.115 0.00694886
71.155 0.00396314
71.195 0.00868657
71.235 -0.000919265
71.275 -0.0124373
71.315 -0.0111736
71.345 -0.0147218