File: data/xrd/xy/2019-06-18T20_54_55.536969+00_00_LBL_A1.xy
'Id: "" Comment: "Integrate frame 20190723_4triFMePh_01_002.gfrmwith cursor Wedge Cursor #1" Operator: "UC Berkeley" Anode: "Co" Scantype: "TwoTheta" TimePerStep: "600"
20.5 -0.0245228
20.54 -0.0123989
20.58 0.0617839
20.62 0.00508066
20.66 0.0700198
20.7 0.00764928
20.74 -0.0219872
20.78 0.0479351
20.82 0.00191835
20.86 0.0375034
20.9 0.0372616
20.94 -0.00644068
20.98 0.00845224
21.02 0.0350568
21.06 0.059954
21.1 0.0190687
21.14 0.0562741
21.18 0.0892717
21.22 0.0730094
21.26 0.0216525
21.3 0.050168
21.34 0.0777935
21.38 -0.00412884
21.42 0.060039
21.46 -0.00764791
21.5 0.0250753
21.54 0.10956
21.58 0.101445
21.62 0.115522
21.66 0.096454
21.7 0.0709455
21.74 0.136249
21.78 0.0786007
21.82 0.0580236
21.86 0.0533332
21.9 0.0100669
21.94 0.0640689
21.98 0.0151997
22.02 0.0410097
22.06 0.0181744
22.1 0.0345376
22.14 0.00980888
22.18 0.0555096
22.22 0.103705
22.26 0.136671
22.3 0.0845704
22.34 -0.00101777
22.38 0.0954043
22.42 0.0681525
22.46 0.0866402
22.5 0.0557235
22.54 0.0484513
22.58 0.0372165
22.62 0.0871763
22.66 0.0395317
22.7 0.0375907
22.74 -0.00224448
22.78 0.0411787
22.82 0.0471612
22.86 0.104736
22.9 0.109486
22.94 0.0162234
22.98 0.0771121
23.02 -0.0227235
23.06 0.102099
23.1 0.0558722
23.14 -0.01422
23.18 0.0857778
23.22 0.075083
23.26 0.0161021
23.3 0.0248565
23.34 0.032777
23.38 0.0220056
23.42 0.0200145
23.46 0.0548922
23.5 0.0526835
23.54 0.0783007
23.58 0.00728369
23.62 0.0423053
23.66 0.0879096
23.7 0.0220387
23.74 0.0869278
23.78 0.0101949
23.82 0.0551834
23.86 0.0221773
23.9 0.0782914
23.94 0.0321575
23.98 0.0986413
24.02 0.079942
24.06 0.0702259
24.1 0.100102
24.14 0.10648
24.18 0.0246358
24.22 0.0386839
24.26 0.0381659
24.3 0.0249175
24.34 0.0871759
24.38 0.00386383
24.42 0.0710433
24.46 0.104513
24.5 0.00788516
24.54 0.0375471
24.58 0.0642779
24.62 0.0997359
24.66 0.077838
24.7 0.0400225
24.74 0.134063
24.78 0.043357
24.82 0.134953
24.86 0.0294965
24.9 0.0256177
24.94 0.0600171
24.98 0.0944235
25.02 0.0738973
25.06 0.0400705
25.1 0.114449
25.14 0.134319
25.18 0.050026
25.22 0.0744513
25.26 0.0765838
25.3 0.000999319
25.34 0.0801532
25.38 0.0445357
25.42 0.0961572
25.46 0.12312
25.5 0.102253
25.54 0.0622019
25.58 -0.00484958
25.62 0.0865138
25.66 0.100045
25.7 0.00943111
25.74 0.0598377
25.78 0.0100929
25.82 0.0453513
25.86 0.0364034
25.9 0.0436114
25.94 0.0501641
25.98 0.0293125
26.02 0.054209
26.06 0.177892
26.1 0.20986
26.14 0.465427
26.18 0.526864
26.22 0.650708
26.26 0.726778
26.3 0.593584
26.34 0.525205
26.38 0.2607
26.42 0.111375
26.46 0.0620766
26.5 0.00897023
26.54 0.0271236
26.58 0.0484032
26.62 0.0501015
26.66 0.00330169
26.7 0.0405414
26.74 0.0882557
26.78 0.0504877
26.82 0.0584114
26.86 0.0686458
26.9 0.0713755
26.94 0.087445
26.98 -0.00194924
27.02 0.0444311
27.06 0.0198691
27.1 0.0868657
27.14 -0.00599307
27.18 -0.00220301
27.22 0.0795259
27.26 0.0914651
27.3 0.0345901
27.34 0.0962443
27.38 0.10324
27.42 0.0633947
27.46 0.0246536
27.5 0.0370158
27.54 0.0325478
27.58 0.0267905
27.62 -0.0134892
27.66 0.0478791
27.7 0.0766453
27.74 0.038271
27.78 0.0327407
27.82 0.0456253
27.86 -0.00271182
27.9 0.0580633
27.94 0.0464281
27.98 0.0837177
28.02 0.0333869
28.06 0.0415308
28.1 0.0422305
28.14 0.0792241
28.18 0.0957372
28.22 0.110959
28.26 0.0488365
28.3 0.0526484
28.34 0.0911561
28.38 0.0876626
28.42 0.106971
28.46 0.0317103
28.5 0.00356498
28.54 0.08982
28.58 0.0235557
28.62 0.0325473
28.66 0.0766668
28.7 0.0148463
28.74 0.061476
28.78 0.0451594
28.82 0.00830046
28.86 0.03564
28.9 0.0307008
28.94 0.0336812
28.98 -0.0149754
29.02 0.0489849
29.06 0.0264607
29.1 0.0305868
29.14 0.0668213
29.18 0.057959
29.22 0.0132077
29.26 0.0906657
29.3 0.0408831
29.34 0.0449946
29.38 0.0914956
29.42 0.04742
29.46 0.0183445
29.5 0.0173808
29.54 0.0406852
29.58 0.0227938
29.62 0.0756184
29.66 0.0951204
29.7 0.0554775
29.74 0.0611113
29.78 0.0402387
29.82 0.100195
29.86 0.113625
29.9 0.123874
29.94 0.131086
29.98 0.139703
30.02 0.325867
30.06 0.711457
30.1 1.6375
30.14 2.93819
30.18 4.86656
30.22 6.5649
30.26 6.70773
30.3 5.47036
30.34 3.63153
30.38 1.73921
30.42 0.869661
30.46 0.334422
30.5 0.123108
30.54 0.106856
30.58 0.0834703
30.62 0.0377567
30.66 0.00043642
30.7 0.0349721
30.74 0.0330771
30.78 0.0137961
30.82 0.0285158
30.86 0.0305016
30.9 0.00895576
30.94 0.0193879
30.98 0.0751441
31.02 -0.00499888
31.06 0.0277211
31.1 0.0383662
31.14 0.072829
31.18 0.0170299
31.22 0.0255449
31.26 0.0606175
31.3 0.0151291
31.34 0.00927355
31.38 0.020566
31.42 0.0835227
31.46 0.0601197
31.5 0.0522965
31.54 0.00916074
31.58 0.0463379
31.62 0.039086
31.66 0.0598737
31.7 -0.00664768
31.74 0.0221828
31.78 0.0122195
31.82 0.0529867
31.86 0.0216193
31.9 0.0207693
31.94 0.0630373
31.98 0.0643548
32.02 0.00412493
32.06 0.0250913
32.1 0.0265312
32.14 0.054402
32.18 0.0490981
32.22 0.0587788
32.26 0.0790807
32.3 0.0348837
32.34 0.0179709
32.38 0.0455544
32.42 0.0797948
32.46 0.0583922
32.5 0.0763843
32.54 0.0275256
32.58 0.0147719
32.62 0.037943
32.66 0.0681567
32.7 0.085576
32.74 0.0699157
32.78 0.0350952
32.82 0.0437645
32.86 0.0667585
32.9 -0.00252466
32.94 0.0315341
32.98 0.073169
33.02 0.0196535
33.06 0.0571249
33.1 0.0596961
33.14 0.0578695
33.18 0.0746747
33.22 0.0975772
33.26 0.0379282
33.3 0.0075219
33.34 0.0172351
33.38 0.0578182
33.42 0.0286439
33.46 0.0121307
33.5 0.0286546
33.54 0.0101589
33.58 0.0671738
33.62 0.0412001
33.66 0.0245463
33.7 0.0408105
33.74 0.0142324
33.78 0.0436153
33.82 0.0436892
33.86 0.0396511
33.9 0.0289597
33.94 0.0120578
33.98 0.0156106
34.02 0.00954558
34.06 0.0442314
34.1 -0.00334088
34.14 -0.0136895
34.18 0.0181135
34.22 0.0239312
34.26 0.0509043
34.3 0.00740287
34.34 0.0467582
34.38 0.0134202
34.42 0.0269011
34.46 0.00487263
34.5 0.068727
34.54 0.0663446
34.58 0.0503099
34.62 0.000625057
34.66 0.0130927
34.7 0.0010477
34.74 0.0141455
34.78 -0.00835191
34.82 0.05509
34.86 -0.0199888
34.9 0.030432
34.94 0.0216979
34.98 -0.00165738
35.02 0.0286317
35.06 0.0126886
35.1 -0.0159316
35.14 0.0255084
35.18 0.0381067
35.22 0.000950179
35.26 -0.0144858
35.3 0.00682978
35.34 -0.0101422
35.38 0.0358179
35.42 0.0134043
35.46 0.0393108
35.5 0.0241363
35.54 -0.0172049
35.58 0.0397218
35.62 0.0169079
35.66 -0.00389716
35.7 0.00757455
35.74 0.0231162
35.78 0.00593042
35.82 -0.00174535
35.86 0.0037019
35.9 0.00758172
35.94 -0.0123877
35.98 0.0355187
36.02 -0.00913175
36.06 0.00817783
36.1 0.0112653
36.14 0.0105231
36.18 0.0187218
36.22 0.00502303
36.26 -0.0073075
36.3 -0.00193639
36.34 0.0195773
36.38 0.00887566
36.42 0.0366232
36.46 0.0378839
36.5 0.0231083
36.54 0.0174389
36.58 0.00800393
36.62 0.0230143
36.66 -0.00269595
36.7 0.0366248
36.74 0.00967621
36.78 0.0300216
36.82 0.0137389
36.86 0.0148039
36.9 0.0159728
36.94 0.000482383
36.98 0.0401862
37.02 0.0526422
37.06 0.0190547
37.1 0.0305181
37.14 0.0215059
37.18 0.0152805
37.22 0.0309268
37.26 0.0239538
37.3 -0.00101033
37.34 0.0331703
37.38 -0.0059907
37.42 0.0112634
37.46 0.015859
37.5 0.0476402
37.54 0.0235617
37.58 0.015863
37.62 0.0462463
37.66 0.0273591
37.7 0.0092718
37.74 -0.0128616
37.78 0.0243524
37.82 0.0495942
37.86 0.0290279
37.9 0.052164
37.94 0.0580554
37.98 0.0481371
38.02 0.0548139
38.06 0.0124756
38.1 0.0307992
38.14 -0.00454922
38.18 0.0546268
38.22 -0.0149305
38.26 0.0200843
38.3 0.0104862
38.34 0.0280111
38.38 0.00381844
38.42 0.0423023
38.46 0.0137043
38.5 0.0451965
38.54 0.0567532
38.58 0.0252148
38.62 0.0508815
38.66 0.0180514
38.7 0.0400725
38.74 0.0616419
38.78 0.0324178
38.82 0.0226387
38.86 0.0176398
38.9 0.00929349
38.94 0.025541
38.98 0.0379925
39.02 0.0536743
39.06 0.02907
39.1 0.0256772
39.14 0.035624
39.18 0.00791485
39.22 -0.00973277
39.26 0.0312294
39.3 0.0338505
39.34 0.0426228
39.38 0.0291606
39.42 0.0206912
39.46 0.0483944
39.5 -0.00812536
39.54 0.0300333
39.58 0.0369401
39.62 0.0237437
39.66 0.0476087
39.7 0.071338
39.74 0.0944699
39.78 0.0762545
39.82 0.158301
39.86 0.229923
39.9 0.441804
39.94 0.812674
39.98 1.39741
40.02 1.90122
40.06 2.28165
40.1 2.49428
40.14 2.03869
40.18 1.63432
40.22 1.00344
40.26 0.618907
40.3 0.317678
40.34 0.163172
40.38 0.0868155
40.42 0.0610371
40.46 0.0692177
40.5 0.066248
40.54 0.0416493
40.58 0.0464376
40.62 0.0165781
40.66 -0.013803
40.7 0.00537053
40.74 0.000288622
40.78 0.0214088
40.82 0.00945751
40.86 0.0136483
40.9 -0.0068043
40.94 0.00824361
40.98 0.0298562
41.02 0.0368968
41.06 0.0312529
41.1 0.0241911
41.14 0.0327279
41.18 0.00174495
41.22 0.0276339
41.26 0.0367865
41.3 0.0258026
41.34 0.0373118
41.38 0.0779831
41.42 0.0278035
41.46 0.0421998
41.5 0.0419298
41.54 0.0853287
41.58 0.0399037
41.62 0.0269447
41.66 0.0221333
41.7 0.0495671
41.74 0.00606919
41.78 0.00481828
41.82 0.0296405
41.86 0.0639177
41.9 0.0221884
41.94 0.0258472
41.98 0.0117634
42.02 0.071887
42.06 0.0196703
42.1 0.00819279
42.14 0.0405516
42.18 0.0458742
42.22 0.0280267
42.26 0.0428388
42.3 -0.0122769
42.34 0.0334125
42.38 -0.00531446
42.42 0.0400417
42.46 0.0331689
42.5 0.0460232
42.54 -0.0128177
42.58 -0.00382656
42.62 -0.00892953
42.66 0.0311383
42.7 0.0821228
42.74 0.0235244
42.78 -0.00573508
42.82 0.00148708
42.86 0.00484565
42.9 0.00726567
42.94 0.0171963
42.98 0.0136498
43.02 0.0338756
43.06 0.0177463
43.1 0.00817042
43.14 0.0474633
43.18 0.00257108
43.22 0.0134501
43.26 0.0363694
43.3 0.0232802
43.34 0.00473665
43.38 0.0603644
43.42 0.0400109
43.46 0.0231385
43.5 0.00329433
43.54 0.0311212
43.58 -0.00191116
43.62 0.0187071
43.66 0.0167156
43.7 0.0407874
43.74 0.0340452
43.78 0.0498701
43.82 0.077875
43.86 0.0702629
43.9 0.0184186
43.94 0.0582988
43.98 0.0331034
44.02 0.0244865
44.06 0.00412904
44.1 0.0509334
44.14 0.0176689
44.18 0.0153514
44.22 0.0481832
44.26 0.0360941
44.3 0.038831
44.34 0.0241014
44.38 0.0482565
44.42 0.0444163
44.46 0.0249346
44.5 0.0324688
44.54 0.0302919
44.58 0.00651546
44.62 0.0410607
44.66 -0.00982203
44.7 0.0531709
44.74 0.0185968
44.78 0.050899
44.82 0.00851149
44.86 0.0107597
44.9 0.00447123
44.94 0.0489066
44.98 0.0193502
45.02 0.0173002
45.06 0.0378124
45.1 0.0130853
45.14 0.101201
45.18 0.0971981
45.22 0.158569
45.26 0.239556
45.3 0.230525
45.34 0.215194
45.38 0.185851
45.42 0.156434
45.46 0.0709521
45.5 0.0818891
45.54 0.0155104
45.58 0.0663383
45.62 0.0352656
45.66 0.014561
45.7 0.0204081
45.74 0.0515834
45.78 0.0725934
45.82 0.0555936
45.86 0.134082
45.9 0.171381
45.94 0.152012
45.98 0.299537
46.02 0.441941
46.06 0.877911
46.1 1.44373
46.14 2.54316
46.18 4.37841
46.22 6.53465
46.26 7.84614
46.3 8.90887
46.34 8.71568
46.38 7.35254
46.42 5.80552
46.46 3.84674
46.5 2.37496
46.54 1.347
46.58 0.797047
46.62 0.389043
46.66 0.213176
46.7 0.152806
46.74 0.1053
46.78 0.065875
46.82 0.042977
46.86 0.0460766
46.9 0.0337225
46.94 0.0510175
46.98 0.082084
47.02 0.0200231
47.06 0.058068
47.1 0.00166516
47.14 0.0255093
47.18 0.0217425
47.22 0.0227894
47.26 0.0474597
47.3 0.0221033
47.34 0.00527691
47.38 0.0281191
47.42 0.0102461
47.46 0.0442335
47.5 0.00427967
47.54 0.00989869
47.58 0.0170679
47.62 0.0316954
47.66 0.00592936
47.7 0.0286556
47.74 0.0477213
47.78 0.0410348
47.82 0.0364969
47.86 0.066389
47.9 0.0486028
47.94 0.0917808
47.98 0.0422326
48.02 0.0360447
48.06 0.0683314
48.1 0.0221229
48.14 0.0432118
48.18 -0.0127126
48.22 0.0463371
48.26 0.00748774
48.3 0.0241288
48.34 0.0534971
48.38 0.00937181
48.42 0.0416964
48.46 0.0490592
48.5 0.0493424
48.54 0.0868381
48.58 0.109212
48.62 0.182921
48.66 0.332703
48.7 0.563095
48.74 0.717762
48.78 0.9759
48.82 1.13404
48.86 1.14919
48.9 1.07993
48.94 0.949397
48.98 0.747114
49.02 0.611117
49.06 0.425454
49.1 0.268465
49.14 0.112743
49.18 0.0804239
49.22 0.0385096
49.26 0.0461301
49.3 0.0232717
49.34 0.0270778
49.38 0.0280071
49.42 0.032962
49.46 0.0290629
49.5 0.0454867
49.54 0.00714956
49.58 0.0215395
49.62 0.00630333
49.66 0.0386893
49.7 -0.000481293
49.74 0.0184122
49.78 -0.0169519
49.82 0.0212876
49.86 0.0301479
49.9 0.0402423
49.94 0.0473706
49.98 0.0107979
50.02 0.0335119
50.06 0.0326082
50.1 0.0467701
50.14 -0.000239286
50.18 0.0299691
50.22 0.019349
50.26 0.0378385
50.3 0.0414901
50.34 0.0165244
50.38 0.0333195
50.42 0.0154179
50.46 0.0152066
50.5 0.0174843
50.54 0.0431312
50.58 0.0414888
50.62 0.02632
50.66 0.00442792
50.7 0.00121779
50.74 0.0168907
50.78 0.0166317
50.82 0.015462
50.86 -0.00609281
50.9 0.00693171
50.94 -0.000972331
50.98 0.0127792
51.02 0.0324695
51.06 0.0218376
51.1 0.0266961
51.14 0.0119207
51.18 -0.0139877
51.22 0.0154636
51.26 0.00636002
51.3 -0.0167219
51.34 0.0138158
51.38 0.00461202
51.42 0.0209745
51.46 0.00293856
51.5 -0.00462928
51.54 0.00129241
51.58 0.0156668
51.62 -0.00825449
51.66 -0.00242002
51.7 0.0277987
51.74 0.0346204
51.78 -0.0120163
51.82 -0.00143131
51.86 0.016652
51.9 0.0253789
51.94 0.00743133
51.98 0.0359307
52.02 0.0318548
52.06 0.0135822
52.1 -0.00983485
52.14 0.0084027
52.18 -0.0146249
52.22 0.0123878
52.26 0.00998043
52.3 0.0220133
52.34 0.00674406
52.38 0.00121156
52.42 0.0261803
52.46 -0.0167071
52.5 0.0205446
52.54 0.0282318
52.58 -0.00440462
52.62 0.0332822
52.66 0.0208091
52.7 -0.00996897
52.74 0.0563451
52.78 0.0564889
52.82 0.0802064
52.86 0.12066
52.9 0.17201
52.94 0.252342
52.98 0.347552
53.02 0.439931
53.06 0.452888
53.1 0.472457
53.14 0.473589
53.18 0.398593
53.22 0.356167
53.26 0.249787
53.3 0.175507
53.34 0.119953
53.38 0.0487941
53.42 0.0354961
53.46 0.00360872
53.5 -6.59802e-05
53.54 0.00302537
53.58 -0.0171324
53.62 -0.00203796
53.66 0.00457204
53.7 0.00738192
53.74 0.040012
53.78 0.0445544
53.82 0.070559
53.86 0.115339
53.9 0.130681
53.94 0.163659
53.98 0.196198
54.02 0.200575
54.06 0.183531
54.1 0.150382
54.14 0.164718
54.18 0.10972
54.22 0.0677284
54.26 0.0726163
54.3 0.0472989
54.34 0.0388344
54.38 0.0396169
54.42 0.00884334
54.46 0.0811438
54.5 0.0187594
54.54 0.0331955
54.58 0.0361189
54.62 0.0170293
54.66 0.0276258
54.7 0.0363621
54.74 -0.0143242
54.78 0.0411612
54.82 -0.000687575
54.86 0.0281255
54.9 0.0289613
54.94 0.0386865
54.98 0.0159065
55.02 0.0289072
55.06 0.0196794
55.1 -0.0158494
55.14 0.0250902
55.18 0.0210607
55.22 0.0456256
55.26 0.0354207
55.3 0.0466269
55.34 0.00737208
55.38 0.0104106
55.42 0.0441952
55.46 0.0115781
55.5 0.0263439
55.54 0.0169284
55.58 0.0144843
55.62 0.0212548
55.66 0.0244384
55.7 0.0297501
55.74 0.0210521
55.78 0.0657083
55.82 0.0857749
55.86 0.118773
55.9 0.12132
55.94 0.156463
55.98 0.272379
56.02 0.390897
56.06 0.669481
56.1 1.11197
56.14 1.50452
56.18 1.92914
56.22 2.18948
56.26 2.27686
56.3 2.49175
56.34 2.45848
56.38 2.1374
56.42 1.97968
56.46 1.5873
56.5 1.208
56.54 0.970991
56.58 0.628998
56.62 0.375985
56.66 0.189811
56.7 0.146295
56.74 0.0807279
56.78 0.0442524
56.82 0.0149403
56.86 0.00800492
56.9 0.000407747
56.94 -0.016852
56.98 0.0348708
57.02 0.0208513
57.06 0.0294522
57.1 0.00213207
57.14 -0.0109978
57.18 0.0476619
57.22 0.0214655
57.26 0.0292177
57.3 -0.00179252
57.34 0.0134384
57.38 0.0108705
57.42 0.0236468
57.46 0.0378137
57.5 0.0393419
57.54 0.0149468
57.58 0.0216133
57.62 0.0116543
57.66 0.0250927
57.7 0.0359163
57.74 0.0243755
57.78 0.00738373
57.82 0.0139294
57.86 0.0310088
57.9 0.028473
57.94 0.0211007
57.98 0.00899642
58.02 0.0159242
58.06 0.00930591
58.1 0.012431
58.14 0.000445484
58.18 0.0101907
58.22 -0.00230619
58.26 0.0105439
58.3 0.0240168
58.34 0.0230705
58.38 0.0216534
58.42 0.0182064
58.46 0.000341305
58.5 0.0327139
58.54 -0.00231903
58.58 0.0445306
58.62 -0.00362202
58.66 0.037119
58.7 0.0340089
58.74 0.00834817
58.78 0.0208966
58.82 0.0134996
58.86 0.0275235
58.9 0.0410492
58.94 0.0396503
58.98 0.0359362
59.02 0.0361155
59.06 0.0423903
59.1 0.0299426
59.14 0.020934
59.18 0.01205
59.22 -0.00823558
59.26 0.0316177
59.3 0.0158384
59.34 0.00428015
59.38 0.000685035
59.42 0.0380257
59.46 0.0169565
59.5 -0.006011
59.54 0.0210011
59.58 0.0337453
59.62 0.0422601
59.66 0.0315537
59.7 0.0699724
59.74 0.0197406
59.78 0.0249486
59.82 0.0156882
59.86 -0.00803136
59.9 0.0192593
59.94 0.0377371
59.98 0.0247464
60.02 0.0248544
60.06 0.0530789
60.1 0.0155859
60.14 0.00335442
60.18 0.0316305
60.22 0.0778609
60.26 0.0344752
60.3 0.0323548
60.34 0.0303551
60.38 0.03956
60.42 0.0601439
60.46 -0.0022454
60.5 0.0397786
60.54 0.0757063
60.58 0.0281243
60.62 0.0295113
60.66 0.0159904
60.7 0.0481222
60.74 0.0283948
60.78 -0.00590932
60.82 0.0316348
60.86 0.0339341
60.9 0.0177597
60.94 0.0516174
60.98 0.0387164
61.02 0.0205832
61.06 -0.00890745
61.1 0.00365907
61.14 0.0333136
61.18 -0.000702347
61.22 0.0131536
61.26 0.00869591
61.3 -0.00686805
61.34 0.0259159
61.38 0.0211937
61.42 0.00371056
61.46 0.0324916
61.5 0.0622663
61.54 0.0640113
61.58 0.0946191
61.62 0.10638
61.66 0.140029
61.7 0.140832
61.74 0.182384
61.78 0.199255
61.82 0.179106
61.86 0.132197
61.9 0.142695
61.94 0.107466
61.98 0.0987571
62.02 0.0649069
62.06 0.0580012
62.1 0.0412686
62.14 0.0243405
62.18 0.0432007
62.22 0.0386543
62.26 0.060601
62.3 0.0175536
62.34 0.0277336
62.38 0.0680353
62.42 0.0782334
62.46 0.0511927
62.5 0.100246
62.54 0.187432
62.58 0.34601
62.62 0.438055
62.66 0.613921
62.7 0.776973
62.74 0.909062
62.78 0.986183
62.82 1.12808
62.86 1.13754
62.9 1.20875
62.94 1.12658
62.98 0.950161
63.02 0.803266
63.06 0.600977
63.1 0.458847
63.14 0.319205
63.18 0.258706
63.22 0.227507
63.26 0.11419
63.3 0.106583
63.34 0.0727923
63.38 0.0394622
63.42 0.0447133
63.46 0.0125644
63.5 0.0292453
63.54 0.0276233
63.58 0.0321203
63.62 0.0315688
63.66 0.0484961
63.7 -0.00346419
63.74 -0.0147808
63.78 -0.000637544
63.82 0.0169029
63.86 0.0147636
63.9 0.0484934
63.94 0.0133744
63.98 0.00217198
64.02 0.0298801
64.06 -0.00176845
64.1 0.0086552
64.14 -0.00743052
64.18 0.0141979
64.22 0.0126232
64.26 0.0161744
64.3 0.00414864
64.34 0.0216789
64.38 0.0328771
64.42 0.0515043
64.46 -0.00717211
64.5 0.0246044
64.54 -0.0142728
64.58 0.00615077
64.62 0.0182988
64.66 0.00196762
64.7 0.0216579
64.74 0.0358317
64.78 0.0224121
64.82 0.0116975
64.86 0.0157543
64.9 0.0493749
64.94 0.0493236
64.98 0.0160389
65.02 0.0353417
65.06 0.0194683
65.1 0.0314317
65.14 -0.00933878
65.18 0.0305677
65.22 0.0170563
65.26 -0.00874421
65.3 0.0151075
65.34 0.0362841
65.38 0.037223
65.42 -0.00398413
65.46 0.0254987
65.5 -0.0138277
65.54 0.0491341
65.58 0.0498157
65.62 0.0221005
65.66 0.0208477
65.7 0.014574
65.74 0.050522
65.78 -0.00500391
65.82 0.0076361
65.86 0.0187551
65.9 0.0165135
65.94 0.00368469
65.98 0.0349141
66.02 0.00794638
66.06 0.0363521
66.1 0.0240961
66.14 0.0208327
66.18 0.00271858
66.22 -0.000123903
66.26 0.0297826
66.3 0.0405804
66.34 0.0422329
66.38 0.0323272
66.42 0.0808947
66.46 0.102335
66.5 0.135181
66.54 0.17318
66.58 0.21051
66.62 0.258019
66.66 0.28005
66.7 0.317688
66.74 0.313168
66.78 0.337809
66.82 0.249319
66.86 0.289114
66.9 0.277933
66.94 0.246298
66.98 0.213355
67.02 0.202182
67.06 0.100197
67.1 0.0795941
67.14 0.0676296
67.18 0.057411
67.22 0.00538502
67.26 0.00769611
67.3 0.00738575
67.34 0.0199089
67.38 0.0475902
67.42 0.0309512
67.46 0.0342754
67.5 0.00413568
67.54 0.0320697
67.58 -0.0136736
67.62 0.0215212
67.66 0.0174589
67.7 0.00751133
67.74 0.0425621
67.78 0.0384008
67.82 0.0391405
67.86 -0.0066945
67.9 0.0369853
67.94 0.0189861
67.98 -0.00170762
68.02 0.0255719
68.06 0.013684
68.1 0.0485524
68.14 0.021618
68.18 0.022554
68.22 0.0311726
68.26 0.0388297
68.3 0.0264121
68.34 0.0245384
68.38 0.0562436
68.42 0.03808
68.46 0.0157354
68.5 0.0315087
68.54 0.0273919
68.58 0.0128274
68.62 0.0250927
68.66 -0.00922059
68.7 -0.00787874
68.74 0.0105181
68.78 0.00823095
68.82 0.0277983
68.86 0.00742299
68.9 -0.00910192
68.94 -0.0101051
68.98 0.0147885
69.02 0.0240911
69.06 0.00149484
69.1 0.00250569
69.14 0.00911365
69.18 0.0189958
69.22 0.00880548
69.26 0.00663296
69.3 0.0255076
69.34 0.0279946
69.38 0.0255143
69.42 0.00562036
69.46 0.0255797
69.5 0.0295231
69.54 0.0187866
69.58 0.00675783
69.62 0.0381728
69.66 0.0225961
69.7 0.0115399
69.74 0.0344461
69.78 0.010285
69.82 0.0251497
69.86 0.0111728
69.9 0.0249786
69.94 0.0297383
69.98 -0.00630188
70.02 0.0124039
70.06 0.0122819
70.1 0.00128593
70.14 0.0197138
70.18 0.000319394
70.22 0.00291209
70.26 0.0103203
70.3 -0.0132359
70.34 0.0292468
70.38 -0.000406165
70.42 0.0406463
70.46 0.0298883
70.5 0.0336774
70.54 0.0124126
70.58 0.00238571
70.62 0.0410324
70.66 0.0425273
70.7 0.0245865
70.74 0.0209449
70.78 0.0625573
70.82 0.0310152
70.86 -0.000585005
70.9 -0.00737785
70.94 0.022857
70.98 0.059692
71.02 0.0205115
71.06 0.0066657
71.1 0.00459277
71.14 0.0265299
71.18 0.0311969
71.22 0.0314976
71.26 0.0122427
71.3 0.019566
71.34 0.0328612
71.38 0.0287414
71.42 -0.00536333
71.46 0.0221076
71.5 0.0488591
71.54 0.0289571
71.58 0.0518208
71.62 0.0379661
71.66 0.0596617
71.7 0.0373636
71.74 0.0252758
71.78 0.0453987
71.82 0.0273794
71.86 0.0398881
71.9 0.0165701
71.94 0.0178921
71.98 0.0282884
72.02 0.00419529
72.06 0.0326056
72.1 0.0128427
72.14 0.0124159
72.18 -0.000950012
72.22 0.028157
72.26 -0.00533137
72.3 0.03792
72.34 0.00654183
72.38 0.0314547
72.42 0.0322747
72.46 0.0106384
72.5 0.0201095
72.54 0.0298317
72.58 -0.0137908
72.62 0.0118337
72.66 0.029543
72.7 0.0616622
72.74 0.0281507
72.78 0.0729937
72.82 0.104058
72.86 0.11037
72.9 0.162803
72.94 0.173617
72.98 0.188635
73.02 0.196877
73.06 0.178931
73.1 0.160531
73.14 0.133767
73.18 0.176642
73.22 0.151277
73.26 0.138489
73.3 0.0730567
73.34 0.0445159
73.38 0.0630095
73.42 0.0245564
73.46 0.0534366
73.5 0.0415952
73.54 0.0174751
73.58 -0.0103163
73.62 0.0259978
73.66 0.02604
73.7 0.0419387
73.74 0.0416044
73.78 0.0626011
73.82 0.0377485
73.86 0.0489783
73.9 0.0674757
73.94 0.0410795
73.98 0.0613233
74.02 0.0405803
74.06 0.0364444
74.1 0.0148718
74.14 0.0260334
74.18 0.00806905
74.22 0.000274832
74.26 0.0522572
74.3 0.0225464
74.34 -0.00202894
74.38 -0.00394921
74.42 0.0153429
74.46 0.0185668
74.5 0.0228614
74.54 0.0235676
74.58 0.00718869
74.62 0.00824637
74.66 0.00233409
74.7 0.0222804
74.74 0.0131482
74.78 0.0476895
74.82 0.0106971
74.86 0.0307572
74.9 0.00758279
74.94 -0.0141278
74.98 -0.00823988
75.02 -0.00177513
75.06 0.042469
75.1 -0.0149091
75.14 0.0383716
75.18 0.000568411
75.22 -0.0102607
75.26 0.000309521
75.3 0.0108659
75.34 -0.0187168
75.38 -0.00858666
75.42 0.018485
75.46 0.0165269
75.5 0.030034
75.54 0.0579759
75.58 0.155274
75.62 0.0488284
75.66 0.0341848
75.7 0.0462444
75.725 -0.0357516