File: data/xrd/xy/2019-06-10T21_14_00.866379+00_00_LBL_F7.xy
'Id: "" Comment: "Integrate frame 06132019_dimethyl_ipropyl_03_002.gfrmwith cursor Wedge Cursor #3" Operator: "UC Berkeley" Anode: "Co" Scantype: "TwoTheta" TimePerStep: "480"
16.825 -0.0290251
16.865 0.0313448
16.905 0.0664263
16.945 0.0841169
16.985 0.0583443
17.025 0.116425
17.065 0.0602089
17.105 0.0789592
17.145 0.0528881
17.185 0.0819671
17.225 0.0625996
17.265 0.0230597
17.305 0.0107725
17.345 0.0354275
17.385 0.0422211
17.425 0.0373607
17.465 0.0659616
17.505 0.0446376
17.545 0.0561313
17.585 0.0726204
17.625 0.0384774
17.665 0.033233
17.705 0.0367976
17.745 0.0209442
17.785 0.0538728
17.825 0.0239254
17.865 0.0731271
17.905 0.0796198
17.945 -0.00587257
17.985 0.0344151
18.025 0.0605978
18.065 0.050677
18.105 0.103203
18.145 0.0456878
18.185 0.0106654
18.225 0.0887324
18.265 0.125101
18.305 0.0771714
18.345 0.117926
18.385 0.13764
18.425 0.133615
18.465 0.117938
18.505 0.0807682
18.545 0.0705432
18.585 0.0302688
18.625 0.0380193
18.665 0.0670236
18.705 0.115632
18.745 0.0471402
18.785 0.0390887
18.825 0.00114676
18.865 -0.0144109
18.905 0.0321641
18.945 -0.00951163
18.985 0.0163747
19.025 0.0501126
19.065 0.00797249
19.105 0.0479231
19.145 0.0532473
19.185 0.0495231
19.225 0.0426964
19.265 0.0528809
19.305 0.0567773
19.345 0.00278791
19.385 0.0250473
19.425 0.0637123
19.465 0.0714667
19.505 0.0481725
19.545 0.0434213
19.585 0.0460323
19.625 0.00759925
19.665 0.0766063
19.705 0.0187391
19.745 -0.0223952
19.785 -0.0188645
19.825 0.0318542
19.865 0.026451
19.905 -0.011926
19.945 0.0486701
19.985 0.0383022
20.025 0.0952178
20.065 0.0634559
20.105 0.0563456
20.145 0.091288
20.185 0.0404619
20.225 0.0246596
20.265 0.0273117
20.305 0.0764646
20.345 0.00669673
20.385 0.0665174
20.425 0.0937184
20.465 0.0797298
20.505 0.0157512
20.545 0.0602125
20.585 0.0131465
20.625 -0.0224929
20.665 0.0345776
20.705 0.0347528
20.745 0.0443079
20.785 0.00883799
20.825 0.0359553
20.865 0.0126155
20.905 0.0398513
20.945 0.0433321
20.985 0.0352968
21.025 -0.00347002
21.065 0.0458496
21.105 0.0428207
21.145 0.0274227
21.185 0.0394311
21.225 0.0280228
21.265 0.0590459
21.305 0.0174232
21.345 0.0681968
21.385 0.0606858
21.425 0.0369185
21.465 -0.0144239
21.505 0.0405595
21.545 0.0185517
21.585 0.0269158
21.625 0.0527432
21.665 0.0790622
21.705 -0.00221296
21.745 0.0612982
21.785 0.00724902
21.825 0.0154324
21.865 -0.0266957
21.905 0.0295856
21.945 0.0188235
21.985 0.0362522
22.025 0.0109907
22.065 0.0849943
22.105 0.0650539
22.145 0.0409501
22.185 0.0311191
22.225 0.057721
22.265 0.0525161
22.305 0.0431829
22.345 -0.00758616
22.385 0.0571729
22.425 0.0498317
22.465 0.0930445
22.505 0.0147425
22.545 0.0418469
22.585 0.0178962
22.625 0.0528581
22.665 0.0406582
22.705 0.0756759
22.745 0.0488535
22.785 0.0232827
22.825 0.0167033
22.865 0.0927932
22.905 0.0336232
22.945 0.0466164
22.985 0.090929
23.025 0.0291878
23.065 0.0137235
23.105 0.0527597
23.145 0.0705974
23.185 0.065507
23.225 0.048121
23.265 0.0956625
23.305 0.0722819
23.345 0.134131
23.385 0.219702
23.425 0.400344
23.465 0.44421
23.505 0.496965
23.545 0.418289
23.585 0.317527
23.625 0.199602
23.665 0.147114
23.705 0.0888411
23.745 0.0394193
23.785 0.0884141
23.825 0.0514356
23.865 0.0387887
23.905 -0.00720835
23.945 -0.00431156
23.985 0.0236179
24.025 0.0662829
24.065 0.010832
24.105 0.0334283
24.145 0.0441418
24.185 0.0367198
24.225 0.0213563
24.265 -0.00408253
24.305 0.037797
24.345 -0.00872015
24.385 -0.00215938
24.425 0.0298404
24.465 0.0309471
24.505 0.0499796
24.545 0.0361547
24.585 0.0225567
24.625 0.0206975
24.665 0.0389159
24.705 0.00867139
24.745 0.00526847
24.785 0.0297551
24.825 -0.0242339
24.865 0.0243146
24.905 0.0656707
24.945 0.0809145
24.985 0.0379461
25.025 0.0817801
25.065 0.0968231
25.105 0.120582
25.145 0.15959
25.185 0.147298
25.225 0.136249
25.265 0.126402
25.305 0.12816
25.345 0.0576017
25.385 0.0853636
25.425 0.0339232
25.465 0.0770374
25.505 0.0144303
25.545 0.0391602
25.585 0.02889
25.625 -0.0160571
25.665 0.0258456
25.705 0.0389505
25.745 0.0416007
25.785 0.072685
25.825 0.067471
25.865 0.0291835
25.905 -0.0173614
25.945 0.0292084
25.985 0.0325473
26.025 0.00400338
26.065 0.0638734
26.105 0.0163266
26.145 0.036167
26.185 0.0547508
26.225 0.046618
26.265 0.061743
26.305 0.0533235
26.345 0.0859358
26.385 0.0763653
26.425 0.0576759
26.465 0.0531073
26.505 0.00114538
26.545 0.0753813
26.585 0.0786622
26.625 0.0380582
26.665 0.0704794
26.705 0.0346474
26.745 -0.00421422
26.785 0.0934007
26.825 0.0271175
26.865 0.0394743
26.905 0.0613558
26.945 0.0459901
26.985 0.0678707
27.025 0.0531496
27.065 0.0651786
27.105 0.0175627
27.145 0.0236321
27.185 0.00972206
27.225 -0.0224588
27.265 0.0427451
27.305 0.0361661
27.345 0.0410921
27.385 -0.0121656
27.425 0.0588644
27.465 0.0535999
27.505 0.0328678
27.545 0.0107236
27.585 0.0360379
27.625 0.0147545
27.665 0.0456691
27.705 0.0785555
27.745 0.041688
27.785 0.00596492
27.825 0.0271049
27.865 0.0346256
27.905 -0.0255122
27.945 0.081426
27.985 0.0337275
28.025 0.0166511
28.065 0.00615908
28.105 -0.00440951
28.145 0.0118824
28.185 0.0373234
28.225 -6.48025e-05
28.265 0.0494314
28.305 0.0120195
28.345 0.0350426
28.385 0.0577288
28.425 0.0309514
28.465 0.0554416
28.505 0.0433579
28.545 0.126948
28.585 0.237119
28.625 0.251162
28.665 0.4275
28.705 0.44693
28.745 0.398056
28.785 0.370197
28.825 0.183642
28.865 0.135525
28.905 0.0786353
28.945 0.0426665
28.985 0.0715332
29.025 0.0355275
29.065 0.0159698
29.105 0.0190941
29.145 0.0194578
29.185 0.0229179
29.225 0.0463348
29.265 0.0834793
29.305 0.0280394
29.345 0.056083
29.385 0.0123586
29.425 0.0885776
29.465 0.074629
29.505 0.0288709
29.545 0.0912921
29.585 0.0868325
29.625 0.123518
29.665 0.134568
29.705 0.104083
29.745 0.179539
29.785 0.257069
29.825 0.373701
29.865 0.63171
29.905 1.1267
29.945 1.8234
29.985 2.74226
30.025 3.62275
30.065 4.05732
30.105 3.75445
30.145 2.80546
30.185 1.74829
30.225 1.08946
30.265 0.577165
30.305 0.37572
30.345 0.20939
30.385 0.13462
30.425 0.148615
30.465 0.110679
30.505 0.109056
30.545 0.0584887
30.585 0.0338924
30.625 0.0557275
30.665 0.0319418
30.705 0.0116516
30.745 0.0292715
30.785 0.0224236
30.825 0.0387047
30.865 0.0262819
30.905 0.0392864
30.945 -0.0252101
30.985 0.0187567
31.025 0.0224142
31.065 0.0414592
31.105 0.0563659
31.145 0.00258958
31.185 0.0401798
31.225 0.00189358
31.265 0.0453964
31.305 0.0483633
31.345 -0.020291
31.385 0.0156911
31.425 0.034632
31.465 0.0310641
31.505 0.044145
31.545 0.00349182
31.585 -0.017964
31.625 0.0147429
31.665 0.0729232
31.705 0.0119519
31.745 0.0436474
31.785 0.0755708
31.825 0.0408282
31.865 -0.0118569
31.905 0.0210339
31.945 0.0491905
31.985 0.065706
32.025 0.0833847
32.065 0.0767143
32.105 0.0407115
32.145 0.0626373
32.185 0.0320833
32.225 0.0498979
32.265 0.0617745
32.305 0.0367929
32.345 0.0104725
32.385 0.0872559
32.425 0.0324407
32.465 0.017556
32.505 0.0342625
32.545 0.0336868
32.585 0.0540082
32.625 0.0335719
32.665 0.0280853
32.705 0.0662818
32.745 0.0398179
32.785 0.0514976
32.825 0.0204949
32.865 0.0333317
32.905 0.0546567
32.945 0.0423585
32.985 0.0245435
33.025 0.0214032
33.065 0.00542378
33.105 0.0242113
33.145 0.0123218
33.185 0.0130542
33.225 0.0101425
33.265 0.0563023
33.305 0.0341496
33.345 0.0593071
33.385 0.0181196
33.425 0.0134484
33.465 0.061537
33.505 0.0152395
33.545 0.0525065
33.585 -0.0113761
33.625 -0.0031825
33.665 0.0110162
33.705 0.0232405
33.745 -0.0025158
33.785 0.0207494
33.825 0.051491
33.865 0.0308823
33.905 0.00743154
33.945 -0.00934542
33.985 0.0181499
34.025 0.0232407
34.065 -2.58894e-05
34.105 0.0299391
34.145 0.0505323
34.185 -0.0117741
34.225 0.0195099
34.265 0.0055121
34.305 0.0410284
34.345 0.039217
34.385 0.0708595
34.425 0.10542
34.465 0.148148
34.505 0.221699
34.545 0.355921
34.585 0.544167
34.625 0.880759
34.665 1.24178
34.705 1.53493
34.745 1.65438
34.785 1.57451
34.825 1.30515
34.865 0.964403
34.905 0.607296
34.945 0.374734
34.985 0.243848
35.025 0.16336
35.065 0.107602
35.105 0.0779152
35.145 0.0600405
35.185 0.0347961
35.225 0.0066135
35.265 -0.00866732
35.305 0.000698711
35.345 -0.0217755
35.385 0.0263605
35.425 -0.00515471
35.465 -0.00793476
35.505 0.00701174
35.545 0.0259084
35.585 0.00500744
35.625 0.0199768
35.665 -0.00556126
35.705 0.0254545
35.745 0.00487222
35.785 0.00443646
35.825 -0.00766114
35.865 0.0235662
35.905 0.0309132
35.945 0.079346
35.985 0.165776
36.025 0.249713
36.065 0.476819
36.105 0.847096
36.145 1.34634
36.185 1.86962
36.225 2.38141
36.265 2.56948
36.305 2.42224
36.345 1.96237
36.385 1.40583
36.425 0.941125
36.465 0.556409
36.505 0.321145
36.545 0.2112
36.585 0.137019
36.625 0.0810811
36.665 0.0581501
36.705 0.0692118
36.745 0.017907
36.785 0.0141875
36.825 -0.00722486
36.865 0.031885
36.905 -0.0184327
36.945 0.0287324
36.985 0.0389607
37.025 0.0505563
37.065 0.0326356
37.105 0.0978379
37.145 0.148278
37.185 0.249171
37.225 0.363791
37.265 0.591539
37.305 0.860418
37.345 1.21147
37.385 1.45498
37.425 1.63729
37.465 1.59976
37.505 1.45278
37.545 1.11525
37.585 0.847221
37.625 0.574329
37.665 0.427923
37.705 0.250801
37.745 0.191582
37.785 0.105434
37.825 0.0872332
37.865 0.0542471
37.905 0.00748227
37.945 -0.00932092
37.985 0.0295778
38.025 0.0122084
38.065 0.0266135
38.105 -0.00451444
38.145 -0.023593
38.185 0.000557
38.225 0.00583098
38.265 0.0134593
38.305 0.0591172
38.345 0.104621
38.385 0.155665
38.425 0.232074
38.465 0.301076
38.505 0.30966
38.545 0.351108
38.585 0.306951
38.625 0.238271
38.665 0.15503
38.705 0.142482
38.745 0.0592703
38.785 0.0441293
38.825 0.0233073
38.865 0.0212315
38.905 -0.0172673
38.945 -0.0103893
38.985 0.0166224
39.025 -0.00486476
39.065 0.00972025
39.105 -0.0093013
39.145 0.000879086
39.185 0.00104178
39.225 -0.023111
39.265 -0.00840323
39.305 0.00826383
39.345 -0.00421204
39.385 0.00725322
39.425 -0.0157223
39.465 0.0224846
39.505 0.00289776
39.545 -0.0168379
39.585 -0.0103762
39.625 0.0231397
39.665 0.0163075
39.705 0.0050671
39.745 0.0194975
39.785 -0.012427
39.825 0.00563678
39.865 0.0209529
39.905 0.00345951
39.945 0.0179618
39.985 0.0308936
40.025 0.0302298
40.065 0.00116297
40.105 0.0125026
40.145 0.00444215
40.185 0.0219648
40.225 0.0157879
40.265 -0.0108634
40.305 0.0462536
40.345 0.0300225
40.385 0.0199944
40.425 0.0162227
40.465 0.0229875
40.505 0.013811
40.545 0.0429005
40.585 0.0667692
40.625 0.0725069
40.665 0.0504317
40.705 0.0909118
40.745 0.0683109
40.785 0.0816752
40.825 0.0621388
40.865 0.0349614
40.905 0.0349459
40.945 0.0395623
40.985 0.0350619
41.025 0.026218
41.065 0.0383273
41.105 0.0511033
41.145 0.0806598
41.185 0.118961
41.225 0.164133
41.265 0.239212
41.305 0.310331
41.345 0.330242
41.385 0.315285
41.425 0.263445
41.465 0.235396
41.505 0.144961
41.545 0.109133
41.585 0.0786772
41.625 0.051924
41.665 0.0337724
41.705 0.0329395
41.745 0.0347799
41.785 0.0399872
41.825 0.0196434
41.865 -0.00320612
41.905 0.00962499
41.945 0.0177075
41.985 0.0204291
42.025 0.0261983
42.065 0.0262076
42.105 0.038709
42.145 0.024515
42.185 0.0076089
42.225 0.0344119
42.265 0.0128891
42.305 0.0183478
42.345 0.0355047
42.385 0.0177519
42.425 0.0267638
42.465 0.033796
42.505 0.00484105
42.545 -0.0170957
42.585 0.009929
42.625 0.0117632
42.665 0.0207197
42.705 0.0127079
42.745 0.0356271
42.785 0.0322695
42.825 -0.00956007
42.865 0.0231508
42.905 0.0399963
42.945 0.0280244
42.985 0.0238453
43.025 0.0207578
43.065 0.00814644
43.105 0.0339779
43.145 0.0225295
43.185 0.041408
43.225 -0.0110297
43.265 0.0214842
43.305 0.039346
43.345 0.0193328
43.385 0.028061
43.425 0.0245859
43.465 0.0393012
43.505 0.0149826
43.545 0.0304848
43.585 0.00403265
43.625 0.00890329
43.665 0.032858
43.705 0.0380611
43.745 0.0132466
43.785 0.00871608
43.825 0.0279033
43.865 0.0114074
43.905 0.0264781
43.945 0.0136138
43.985 0.0376401
44.025 0.00958225
44.065 0.0302928
44.105 0.00394434
44.145 0.0531051
44.185 0.00823535
44.225 0.0210901
44.265 0.0113598
44.305 0.0352779
44.345 0.0595334
44.385 0.0512423
44.425 0.0853461
44.465 0.135612
44.505 0.160991
44.545 0.234808
44.585 0.295823
44.625 0.373871
44.665 0.350344
44.705 0.40993
44.745 0.406417
44.785 0.38348
44.825 0.349905
44.865 0.220315
44.905 0.212768
44.945 0.126349
44.985 0.0885815
45.025 0.0685536
45.065 0.0482393
45.105 0.0355862
45.145 0.0363571
45.185 0.032341
45.225 0.0157795
45.265 0.0274257
45.305 0.00981339
45.345 0.00885156
45.385 0.00596918
45.425 0.0287569
45.465 0.0123615
45.505 0.0145188
45.545 0.00179642
45.585 0.0149795
45.625 0.00801561
45.665 -0.00911234
45.705 0.00790606
45.745 0.0243718
45.785 0.00683202
45.825 0.00820081
45.865 0.00165662
45.905 -0.0073786
45.945 0.0088814
45.985 0.00829744
46.025 0.00751454
46.065 -0.00794245
46.105 -0.00131974
46.145 -0.00812878
46.185 -0.000123594
46.225 0.026773
46.265 0.00215666
46.305 0.0318865
46.345 0.010918
46.385 0.0123294
46.425 0.0290816
46.465 -0.0101583
46.505 0.0156649
46.545 0.00765869
46.585 0.00237225
46.625 0.0192567
46.665 0.0298389
46.705 0.0247998
46.745 0.000331785
46.785 0.0154107
46.825 -0.00232899
46.865 0.0211839
46.905 -0.00689383
46.945 -0.00323223
46.985 0.0376192
47.025 0.0324026
47.065 0.00394588
47.105 0.031313
47.145 0.0339795
47.185 0.0155944
47.225 0.0477875
47.265 0.0738553
47.305 0.0625564
47.345 0.103642
47.385 0.160951
47.425 0.201589
47.465 0.294505
47.505 0.318661
47.545 0.358186
47.585 0.315141
47.625 0.32779
47.665 0.362395
47.705 0.315435
47.745 0.360046
47.785 0.355276
47.825 0.432774
47.865 0.553119
47.905 0.832629
47.945 1.19704
47.985 1.56012
48.025 1.88856
48.065 2.08715
48.105 2.32148
48.145 2.34743
48.185 2.21974
48.225 1.8882
48.265 1.54889
48.305 1.13422
48.345 0.844778
48.385 0.561419
48.425 0.36257
48.465 0.243267
48.505 0.196484
48.545 0.139527
48.585 0.124815
48.625 0.119041
48.665 0.0991774
48.705 0.143835
48.745 0.140963
48.785 0.147889
48.825 0.193432
48.865 0.245398
48.905 0.295077
48.945 0.384369
48.985 0.448002
49.025 0.469897
49.065 0.46151
49.105 0.437431
49.145 0.438993
49.185 0.364898
49.225 0.321461
49.265 0.254641
49.305 0.191333
49.345 0.153659
49.385 0.0908482
49.425 0.058487
49.465 0.0662832
49.505 0.0298555
49.545 0.00560854
49.585 0.0237946
49.625 0.0239861
49.665 0.0259229
49.705 0.0356507
49.745 0.0422588
49.785 0.0413943
49.825 0.0515973
49.865 0.113935
49.905 0.146921
49.945 0.214701
49.985 0.360983
50.025 0.538615
50.065 0.702782
50.105 0.837193
50.145 0.88424
50.185 0.948547
50.225 0.94979
50.265 0.952518
50.305 0.818212
50.345 0.747664
50.385 0.619752
50.425 0.451459
50.465 0.334048
50.505 0.234169
50.545 0.157153
50.585 0.0996846
50.625 0.0523336
50.665 0.0313132
50.705 0.0160954
50.745 0.0155322
50.785 0.0184293
50.825 0.00305191
50.865 0.00506744
50.905 -0.00199186
50.945 0.0101527
50.985 0.0261016
51.025 0.00720241
51.065 0.0112389
51.105 -0.00539675
51.145 -0.0132282
51.185 -0.0112729
51.225 -0.00297259
51.265 0.00340399
51.305 0.00565862
51.345 -0.0147459
51.385 0.00963241
51.425 -0.00746052
51.465 0.0159653
51.505 0.0322274
51.545 0.0356246
51.585 0.0559694
51.625 0.0704228
51.665 0.129694
51.705 0.140972
51.745 0.182517
51.785 0.208074
51.825 0.249835
51.865 0.223039
51.905 0.261725
51.945 0.224279
51.985 0.228008
52.025 0.222332
52.065 0.185732
52.105 0.131784
52.145 0.163195
52.185 0.105193
52.225 0.0739136
52.265 0.0474812
52.305 0.0500989
52.345 0.0224578
52.385 0.0154508
52.425 0.00322884
52.465 0.00698608
52.505 -0.00194455
52.545 0.0013816
52.585 0.012572
52.625 -0.00793311
52.665 0.0197698
52.705 0.00746314
52.745 0.0123625
52.785 0.013498
52.825 -0.00300941
52.865 0.015867
52.905 0.00481688
52.945 -0.0153119
52.985 -0.00276435
53.025 -0.00170783
53.065 -0.00524718
53.105 0.0106976
53.145 -0.0111604
53.185 -0.00933749
53.225 0.00592098
53.265 0.00570425
53.305 0.0306572
53.345 0.0349036
53.385 0.0161033
53.425 0.0317229
53.465 0.0636465
53.505 0.0957053
53.545 0.105738
53.585 0.162231
53.625 0.198368
53.665 0.204581
53.705 0.234059
53.745 0.241654
53.785 0.25273
53.825 0.223105
53.865 0.224925
53.905 0.183871
53.945 0.158334
53.985 0.132673
54.025 0.0625575
54.065 0.0580021
54.105 0.0247742
54.145 0.0212061
54.185 0.033115
54.225 -0.00398587
54.265 0.00279117
54.305 0.00486551
54.345 -0.0132301
54.385 -0.000914757
54.425 0.00118725
54.465 -0.0164211
54.505 0.000672125
54.545 -0.00812982
54.585 -0.0129126
54.625 -0.00107463
54.665 0.000245515
54.705 -0.00520387
54.745 -0.00758919
54.785 -0.00512371
54.825 -0.0123514
54.865 0.00077371
54.905 0.0129029
54.945 -0.0126523
54.985 0.0253603
55.025 0.0267514
55.065 0.0506911
55.105 0.0229637
55.145 0.0443929
55.185 0.0232889
55.225 0.0292636
55.265 0.013429
55.305 0.0072529
55.345 -0.0171448
55.385 0.0225874
55.425 0.00214947
55.465 0.000811567
55.505 0.00428613
55.545 0.0115753
55.585 0.00865082
55.625 -0.00180456
55.665 -0.0126456
55.705 -0.000136321
55.745 0.00141342
55.785 0.00963126
55.825 0.00657727
55.865 -0.00537725
55.905 0.0197977
55.945 -0.00306832
55.985 0.0156487
56.025 0.0352084
56.065 0.00565817
56.105 -0.0128967
56.145 0.0107517
56.185 0.00930948
56.225 -0.000167879
56.265 0.00383657
56.305 -0.00407214
56.345 0.0104447
56.385 0.0201403
56.425 -0.0158294
56.465 0.000418438
56.505 -0.00299262
56.545 0.00802733
56.585 0.0150457
56.625 0.0207086
56.665 0.0110101
56.705 0.0260503
56.745 0.0565029
56.785 0.0653479
56.825 0.0563739
56.865 0.0758748
56.905 0.0844728
56.945 0.107772
56.985 0.0861798
57.025 0.0827076
57.065 0.12227
57.105 0.109028
57.145 0.1112
57.185 0.107548
57.225 0.0837129
57.265 0.0936109
57.305 0.0526666
57.345 0.0706062
57.385 0.0783801
57.425 0.0828985
57.465 0.134665
57.505 0.177485
57.545 0.269263
57.585 0.325006
57.625 0.360404
57.665 0.378134
57.705 0.408754
57.745 0.411772
57.785 0.456372
57.825 0.471474
57.865 0.415223
57.905 0.444326
57.945 0.393883
57.985 0.325329
58.025 0.276169
58.065 0.192324
58.105 0.162357
58.145 0.10775
58.185 0.0740984
58.225 0.0728848
58.265 0.0700501
58.305 0.040372
58.345 0.0194539
58.385 0.0286899
58.425 0.021491
58.465 0.00141307
58.505 0.0453886
58.545 0.00614505
58.585 0.0225112
58.625 0.0339888
58.665 0.0133388
58.705 -0.00460605
58.745 -0.00273551
58.785 -0.000300052
58.825 0.0119501
58.865 0.0171431
58.905 -0.0159634
58.945 0.00554568
58.985 0.00703102
59.025 -0.00467513
59.065 0.0376526
59.105 0.0312868
59.145 0.0180336
59.185 0.0235532
59.225 0.00833756
59.265 0.0110253
59.305 0.0203315
59.345 0.00660636
59.385 0.0208362
59.425 0.0226351
59.465 0.0220056
59.505 -0.000857694
59.545 0.0234102
59.585 0.0135959
59.625 0.0319958
59.665 0.00832347
59.705 0.00520751
59.745 0.0135194
59.785 0.0196426
59.825 0.0178054
59.865 0.0258504
59.905 -0.00108731
59.945 0.00917213
59.985 0.0184856
60.025 0.0203495
60.065 0.0051906
60.105 0.0186199
60.145 0.0048601
60.185 -0.00735385
60.225 0.0438481
60.265 0.0185341
60.305 0.0204596
60.345 0.0184935
60.385 0.0410706
60.425 0.014503
60.465 0.0247134
60.505 -0.00564869
60.545 0.0299539
60.585 -0.0121861
60.625 -0.00351956
60.665 -0.0113961
60.705 0.0135873
60.745 0.0309578
60.785 0.00408862
60.825 0.0283199
60.865 0.0358268
60.905 -0.000783284
60.945 0.0141799
60.985 0.0264597
61.025 0.0290704
61.065 0.017837
61.105 0.0108336
61.145 0.00766266
61.185 0.0173298
61.225 0.0427516
61.265 0.0525455
61.305 0.0418751
61.345 0.0489298
61.385 0.0739449
61.425 0.101589
61.465 0.150715
61.505 0.187739
61.545 0.174366
61.585 0.225451
61.625 0.243724
61.665 0.277175
61.705 0.290381
61.745 0.282405
61.785 0.313944
61.825 0.29161
61.865 0.265628
61.905 0.277008
61.945 0.190376
61.985 0.182522
62.025 0.151685
62.065 0.133034
62.105 0.10488
62.145 0.127304
62.185 0.0965659
62.225 0.162787
62.265 0.158447
62.305 0.191107
62.345 0.215637
62.385 0.236228
62.425 0.275623
62.465 0.293544
62.505 0.275316
62.545 0.265487
62.585 0.310205
62.625 0.286762
62.665 0.289057
62.705 0.253337
62.745 0.230875
62.785 0.185932
62.825 0.16207
62.865 0.111278
62.905 0.0919172
62.945 0.08849
62.985 0.0769405
63.025 0.0656434
63.065 0.0637607
63.105 0.0298003
63.145 0.0291875
63.185 0.0382652
63.225 0.0326837
63.265 0.0409975
63.305 0.0453199
63.345 0.00534604
63.385 0.00448453
63.425 0.00919136
63.465 0.0117442
63.505 0.0120499
63.545 -0.00877657
63.585 0.00854733
63.625 0.0136625
63.665 -0.00806211
63.705 -0.00553211
63.745 0.00434708
63.785 0.01814
63.825 0.0243556
63.865 -0.00170061
63.905 0.012061
63.945 -0.00552638
63.985 0.00633732
64.025 -0.00878347
64.065 -0.00356806
64.105 -0.00791727
64.145 0.0079966
64.185 0.0182252
64.225 0.0124925
64.265 -0.0058602
64.305 0.00265577
64.345 0.00108189
64.385 0.0294635
64.425 0.0179733
64.465 0.0358869
64.505 0.069021
64.545 0.0587885
64.585 0.0734889
64.625 0.111748
64.665 0.102943
64.705 0.164886
64.745 0.160012
64.785 0.163618
64.825 0.148202
64.865 0.192443
64.905 0.183948
64.945 0.142633
64.985 0.185947
65.025 0.168527
65.065 0.159506
65.105 0.165952
65.145 0.141076
65.185 0.0922652
65.225 0.0867807
65.265 0.0950168
65.305 0.0576279
65.345 0.0696957
65.385 0.0594681
65.425 0.0454454
65.465 0.0401861
65.505 0.048104
65.545 0.0313211
65.585 0.0701399
65.625 0.0251989
65.665 0.0333912
65.705 0.0148166
65.745 0.0235612
65.785 0.00924257
65.825 0.0331866
65.865 0.00745089
65.905 0.0133936
65.945 0.0215347
65.985 0.0316408
66.025 0.023312
66.065 0.0173617
66.105 0.00816313
66.145 0.00796277
66.185 0.0254736
66.225 0.0209756
66.265 0.0247851
66.305 0.0324981
66.345 0.0277672
66.385 0.00253315
66.425 0.0259445
66.465 0.0181441
66.505 0.00852205
66.545 0.0207162
66.585 0.0194871
66.625 0.0287219
66.665 0.00887003
66.705 0.013344
66.745 0.0139958
66.785 0.0322315
66.825 0.00424687
66.865 0.015045
66.905 0.0121866
66.945 -0.0173399
66.985 0.0127254
67.025 0.0261309
67.065 -0.00532304
67.105 -0.000606788
67.145 0.0139809
67.185 0.0278228
67.225 0.00899611
67.265 0.0108253
67.305 0.0131955
67.345 0.0224377
67.385 0.0186272
67.425 0.033939
67.465 0.0376075
67.505 0.0535594
67.545 0.0260784
67.585 0.0507897
67.625 0.0467579
67.665 0.069632
67.705 0.0571129
67.745 0.0882192
67.785 0.0782086
67.825 0.0799833
67.865 0.0705663
67.905 0.106992
67.945 0.0786269
67.985 0.0452821
68.025 0.0422445
68.065 0.0561908
68.105 0.0681568
68.145 0.0262598
68.185 0.0385424
68.225 0.0307274
68.265 0.0288234
68.305 0.0319204
68.345 0.00920206
68.385 0.0266001
68.425 0.0316364
68.465 0.0263858
68.505 0.0269937
68.545 0.00894821
68.585 0.00787262
68.625 -0.00789257
68.665 0.0257072
68.705 0.00453877
68.745 0.00367043
68.785 0.00536575
68.825 0.0102008
68.865 0.00834728
68.905 0.00348599
68.945 0.017357
68.985 0.0284151
69.025 0.0102019
69.065 0.0118233
69.105 -0.0113707
69.145 0.01635
69.185 0.0171119
69.225 0.0271271
69.265 0.00329612
69.305 0.00621656
69.345 0.01604
69.385 -0.0149869
69.425 0.019476
69.465 0.032578
69.505 0.0122196
69.545 0.00828665
69.585 -0.00499015
69.625 0.0177159
69.665 0.0177853
69.705 0.0429368
69.745 0.0146701
69.785 0.0383366
69.825 0.017954
69.865 0.0475251
69.905 0.0514876
69.945 0.0434791
69.985 0.0567038
70.025 0.0407861
70.065 0.0570901
70.105 0.0682953
70.145 0.045664
70.185 0.0492789
70.225 0.0405081
70.265 0.0533366
70.305 0.0356449
70.345 0.0310833
70.385 0.0244219
70.425 0.0169083
70.465 0.03293
70.505 -0.00476738
70.545 0.00545818
70.585 0.00838025
70.625 0.0222055
70.665 0.0223738
70.705 0.013674
70.745 0.057118
70.785 0.0633305
70.825 0.0820695
70.865 0.119217
70.905 0.139022
70.945 0.17467
70.985 0.211572
71.025 0.180881
71.065 0.200678
71.105 0.2398
71.145 0.255679
71.185 0.242808
71.225 0.27219
71.265 0.272726
71.305 0.237496
71.345 0.231054
71.385 0.21792
71.425 0.183687
71.465 0.154464
71.505 0.146953
71.545 0.120726
71.585 0.0940182
71.625 0.0590908
71.665 0.0422775
71.705 0.0610097
71.745 0.0626013
71.785 0.0411854
71.825 0.0362807
71.865 0.0425104
71.905 0.0085926
71.945 0.0263204
71.985 0.0119939
72.025 0.00754413
72.065 0.017894
72.105 0.018853
72.145 0.0518456
72.185 0.00920691
72.225 0.0280724
72.265 0.0170776
72.305 -0.00349698
72.345 0.015558
72.385 -0.00419381
72.425 -0.00171273
72.465 -0.0034673
72.505 -0.0130186
72.545 0.00577097
72.585 0.00527451
72.625 0.00672286
72.665 -0.00373162
72.705 0.00193738
72.745 0.03028
72.785 0.0307052
72.825 0.0250685
72.865 0.0204336
72.905 0.0619145
72.945 0.0502277
72.985 0.0558656
73.025 0.0716935
73.065 0.104519
73.105 0.116581
73.145 0.104445
73.185 0.121261
73.225 0.0946392
73.265 0.146847
73.305 0.137954
73.345 0.141581
73.385 0.115667
73.425 0.150426
73.465 0.14661
73.505 0.146142
73.545 0.11758
73.585 0.111818
73.625 0.123095
73.665 0.0902923
73.705 0.0970294
73.745 0.0695973
73.785 0.0706099
73.825 0.0514036
73.865 0.0324383
73.905 0.036385
73.945 0.0299901
73.985 0.00636758
74.025 0.0396208
74.065 -0.00946793
74.105 -0.00753582
74.145 0.00835804
74.185 -0.00215928
74.225 0.0398171
74.265 0.0205527
74.305 0.0108049
74.345 -0.0158833
74.35 -0.0173523