File: data/xrd/xy/2019-08-02T14_45_54.346271+00_00_LBL_A2.xy
'Id: "" Comment: "Integrate frame 20190806_tbutyl_phenylnh30_03_002.gfrmwith cursor Wedge Cursor #2" Operator: "UC Berkeley" Anode: "Co" Scantype: "TwoTheta" TimePerStep: "1200"
15.61 -0.0175295
15.65 -0.00893989
15.69 0.046433
15.73 -0.00381682
15.77 0.0333822
15.81 0.0190656
15.85 0.0608196
15.89 0.0522084
15.93 0.0410193
15.97 -0.0170006
16.01 0.0421735
16.05 0.0302697
16.09 0.0577569
16.13 0.0449262
16.17 0.0722275
16.21 0.0425255
16.25 0.0279023
16.29 0.0118267
16.33 0.061287
16.37 0.0383283
16.41 0.0470052
16.45 0.0221451
16.49 0.0374184
16.53 0.0214547
16.57 0.0499323
16.61 -0.00488093
16.65 0.0305202
16.69 0.0267834
16.73 0.0249076
16.77 0.0530173
16.81 0.0325205
16.85 0.0285539
16.89 0.00703928
16.93 0.0410364
16.97 0.0609058
17.01 0.0353584
17.05 0.0163472
17.09 0.0332497
17.13 0.0251454
17.17 0.0351126
17.21 0.0216064
17.25 0.0274975
17.29 0.037047
17.33 0.0368547
17.37 0.0656469
17.41 0.0286453
17.45 0.0500191
17.49 -0.00985515
17.53 0.0341168
17.57 0.0501181
17.61 0.0586827
17.65 0.0522438
17.69 0.0658857
17.73 0.0444867
17.77 0.0304876
17.81 0.0516972
17.85 0.0535032
17.89 0.0402036
17.93 0.0376084
17.97 0.0521701
18.01 0.0374263
18.05 0.0676328
18.09 0.0355598
18.13 0.0435403
18.17 0.0272282
18.21 0.0867804
18.25 0.0458321
18.29 0.017463
18.33 0.0699868
18.37 0.0537423
18.41 0.0372283
18.45 0.0317218
18.49 0.0659911
18.53 0.0487321
18.57 0.0370182
18.61 0.0346842
18.65 0.0394491
18.69 0.055416
18.73 0.0542301
18.77 0.000525774
18.81 0.0178232
18.85 0.0182502
18.89 -0.00883438
18.93 0.040898
18.97 0.0183149
19.01 0.0199447
19.05 0.0426739
19.09 0.0503409
19.13 0.00932555
19.17 0.00421427
19.21 0.0326898
19.25 0.0417172
19.29 0.0173932
19.33 0.0398204
19.37 0.0303294
19.41 0.00813731
19.45 0.0444109
19.49 0.0185437
19.53 0.0412416
19.57 0.0272032
19.61 0.0162023
19.65 -0.0125762
19.69 0.0156225
19.73 0.0133731
19.77 0.00254413
19.81 0.0513264
19.85 4.65833e-05
19.89 0.0469878
19.93 -0.0115967
19.97 -0.0073086
20.01 0.0270148
20.05 0.0364093
20.09 0.0115728
20.13 0.0257662
20.17 0.00073834
20.21 -0.00689149
20.25 0.0228989
20.29 0.0298859
20.33 0.0360852
20.37 0.0359421
20.41 0.0449537
20.45 0.029089
20.49 0.0550325
20.53 0.0609542
20.57 0.0396251
20.61 0.0468894
20.65 0.0119225
20.69 0.0290049
20.73 -0.00746546
20.77 0.0505826
20.81 0.0557407
20.85 0.00799159
20.89 0.0244344
20.93 0.0460247
20.97 0.0113605
21.01 0.0202647
21.05 0.00813097
21.09 0.0338306
21.13 0.0589396
21.17 0.0768209
21.21 0.0313897
21.25 0.00425044
21.29 0.0695501
21.33 0.123436
21.37 0.131043
21.41 0.212608
21.45 0.323042
21.49 0.555468
21.53 0.672672
21.57 0.581678
21.61 0.366371
21.65 0.150907
21.69 0.0426677
21.73 0.0482127
21.77 0.00921551
21.81 0.0202343
21.85 0.0257192
21.89 0.0312322
21.93 -0.0171941
21.97 0.0105423
22.01 0.0380037
22.05 0.0255973
22.09 0.0158396
22.13 0.0271374
22.17 0.0273701
22.21 0.0237612
22.25 0.0310981
22.29 -0.00588612
22.33 0.0282442
22.37 0.0128335
22.41 0.0342402
22.45 0.0459611
22.49 0.0340923
22.53 0.0564037
22.57 0.0325698
22.61 0.0177712
22.65 0.0453249
22.69 0.0292879
22.73 0.0281239
22.77 0.0289258
22.81 0.0189507
22.85 0.0078717
22.89 0.0513123
22.93 0.0249226
22.97 0.00106387
23.01 0.0325471
23.05 0.050691
23.09 0.0709736
23.13 0.058906
23.17 0.0457399
23.21 0.0337061
23.25 0.0276502
23.29 0.0389952
23.33 0.0228479
23.37 0.0312914
23.41 0.0243823
23.45 0.0422549
23.49 0.0364311
23.53 -0.0031898
23.57 0.0227735
23.61 0.00623671
23.65 -4.04903e-05
23.69 0.0269353
23.73 8.17658e-05
23.77 0.0421076
23.81 0.0369548
23.85 0.0174589
23.89 -0.0172375
23.93 0.0303102
23.97 0.00439608
24.01 0.0228915
24.05 0.0467393
24.09 0.0236016
24.13 0.0156283
24.17 0.0307489
24.21 0.0443354
24.25 0.00922907
24.29 0.0137282
24.33 0.0149504
24.37 0.0570126
24.41 0.0250221
24.45 0.000982666
24.49 0.0135881
24.53 0.0310471
24.57 0.0211663
24.61 0.0402113
24.65 0.0259478
24.69 0.053887
24.73 0.0255581
24.77 0.0228674
24.81 0.009478
24.85 0.0566374
24.89 0.0180361
24.93 0.0536457
24.97 0.0731078
25.01 0.0920272
25.05 0.106024
25.09 0.169865
25.13 0.219795
25.17 0.26218
25.21 0.178812
25.25 0.121363
25.29 0.0801566
25.33 0.0556699
25.37 0.0457115
25.41 0.0348002
25.45 0.0546653
25.49 0.0491314
25.53 0.0012035
25.57 0.0901351
25.61 0.0309881
25.65 0.0776938
25.69 0.0463043
25.73 0.0219647
25.77 0.0515093
25.81 0.0544103
25.85 0.0471987
25.89 0.00761582
25.93 0.0400946
25.97 0.0657183
26.01 0.118256
26.05 0.0995354
26.09 0.128983
26.13 0.11994
26.17 0.144242
26.21 0.139149
26.25 0.0821134
26.29 0.0848071
26.33 0.0574905
26.37 0.00117644
26.41 -0.00859814
26.45 0.020649
26.49 0.0157272
26.53 0.00572708
26.57 -0.00334516
26.61 -0.00602823
26.65 0.0371082
26.69 0.0129176
26.73 0.0350662
26.77 0.0349787
26.81 0.0131026
26.85 0.0226837
26.89 0.0141741
26.93 0.0506506
26.97 0.0301553
27.01 0.0221525
27.05 0.0403066
27.09 0.0251945
27.13 0.0326369
27.17 0.0325715
27.21 0.0616208
27.25 0.0977712
27.29 0.162393
27.33 0.254603
27.37 0.372648
27.41 0.514806
27.45 0.53607
27.49 0.417892
27.53 0.282102
27.57 0.13805
27.61 0.0825862
27.65 0.0354764
27.69 0.0113361
27.73 -0.00649848
27.77 0.0196017
27.81 0.00953457
27.85 -0.00471712
27.89 0.00752342
27.93 0.0016695
27.97 0.00507304
28.01 0.0452522
28.05 0.00774227
28.09 0.00270709
28.13 0.0291181
28.17 0.0336226
28.21 0.0355442
28.25 0.0330268
28.29 0.0757333
28.33 0.0557405
28.37 0.118196
28.41 0.22573
28.45 0.295903
28.49 0.327563
28.53 0.424651
28.57 0.39703
28.61 0.316944
28.65 0.22
28.69 0.101883
28.73 0.0491306
28.77 0.0493715
28.81 0.0302492
28.85 0.056684
28.89 0.0215422
28.93 0.00744392
28.97 0.0315703
29.01 0.0278269
29.05 0.0374585
29.09 0.0466532
29.13 0.0350346
29.17 0.0393632
29.21 0.00113495
29.25 -0.00277564
29.29 0.0144304
29.33 0.00735078
29.37 0.0299883
29.41 0.0236187
29.45 0.0316871
29.49 0.0659891
29.53 0.0532015
29.57 0.0422044
29.61 0.0489817
29.65 0.0452756
29.69 0.0362889
29.73 0.0516991
29.77 0.0378046
29.81 0.0320036
29.85 0.0320602
29.89 0.000670955
29.93 0.0114023
29.97 0.0526078
30.01 0.0286069
30.05 0.0618409
30.09 0.0388173
30.13 0.0594961
30.17 0.0521579
30.21 0.0741728
30.25 0.0551365
30.29 0.0807665
30.33 0.098646
30.37 0.0778217
30.41 0.0855798
30.45 0.0660684
30.49 0.0419963
30.53 0.0330016
30.57 0.0338084
30.61 0.0430399
30.65 0.0107954
30.69 0.0624096
30.73 0.0855325
30.77 0.120728
30.81 0.180009
30.85 0.250842
30.89 0.288962
30.93 0.280278
30.97 0.238694
31.01 0.176493
31.05 0.0999828
31.09 0.052845
31.13 0.0482621
31.17 0.000793361
31.21 -0.0129962
31.25 0.00904491
31.29 0.0174204
31.33 -0.0162688
31.37 0.0125731
31.41 -0.00199485
31.45 0.0129934
31.49 -0.00187467
31.53 -0.00508695
31.57 0.0138878
31.61 0.0248051
31.65 0.000202161
31.69 0.000895194
31.73 0.0148946
31.77 0.0164655
31.81 0.00894214
31.85 0.0150295
31.89 0.0209068
31.93 0.0236655
31.97 0.027231
32.01 -0.00393851
32.05 0.00317802
32.09 -0.010865
32.13 0.0110871
32.17 0.00230186
32.21 -0.00356919
32.25 -0.00836208
32.29 0.0263967
32.33 -0.0047511
32.37 -0.00950879
32.41 -0.00468708
32.45 0.0184997
32.49 0.021482
32.53 0.0517468
32.57 0.101895
32.61 0.190433
32.65 0.298838
32.69 0.404258
32.73 0.422101
32.77 0.350757
32.81 0.264544
32.85 0.191544
32.89 0.110014
32.93 0.0836293
32.97 0.0692241
33.01 0.0338081
33.05 0.0521787
33.09 0.0222205
33.13 0.0415438
33.17 0.0513071
33.21 0.0633508
33.25 0.0907862
33.29 0.175023
33.33 0.243238
33.37 0.396338
33.41 0.457167
33.45 0.471719
33.49 0.403577
33.53 0.299644
33.57 0.182579
33.61 0.0960453
33.65 0.061256
33.69 0.0435678
33.73 0.0232468
33.77 0.0300925
33.81 0.0244002
33.85 0.0424037
33.89 0.0787547
33.93 0.137542
33.97 0.173962
34.01 0.224525
34.05 0.251736
34.09 0.251325
34.13 0.213223
34.17 0.180315
34.21 0.117867
34.25 0.0903105
34.29 0.0645098
34.33 0.0120602
34.37 0.00581414
34.41 0.0280944
34.45 -0.00120412
34.49 -0.00205604
34.53 -0.00838304
34.57 -0.0120493
34.61 -0.014438
34.65 -0.010514
34.69 0.00342003
34.73 0.0161657
34.77 -0.0030919
34.81 0.0336988
34.85 0.0248048
34.89 0.0151549
34.93 0.0131687
34.97 0.0173445
35.01 -0.00797278
35.05 0.0168929
35.09 0.0158737
35.13 0.00809928
35.17 0.00795842
35.21 0.00315179
35.25 0.0259661
35.29 0.023359
35.33 0.0305071
35.37 0.0562687
35.41 0.030362
35.45 0.0170492
35.49 0.0168459
35.53 0.0119627
35.57 0.0262828
35.61 0.0278173
35.65 0.0509476
35.69 0.0761128
35.73 0.134134
35.77 0.181895
35.81 0.214214
35.85 0.272825
35.89 0.310688
35.93 0.39023
35.97 0.434827
36.01 0.446307
36.05 0.361383
36.09 0.299811
36.13 0.196849
36.17 0.111793
36.21 0.0695095
36.25 0.0383984
36.29 0.054003
36.33 0.0390194
36.37 0.0531557
36.41 0.0671661
36.45 0.0553685
36.49 0.0787032
36.53 0.0953731
36.57 0.132713
36.61 0.181542
36.65 0.206028
36.69 0.208888
36.73 0.184281
36.77 0.135357
36.81 0.0979829
36.85 0.0414754
36.89 0.0222647
36.93 0.00714123
36.97 -0.00242018
37.01 0.00383157
37.05 -0.0150892
37.09 -0.00868984
37.13 0.00653643
37.17 -0.00291418
37.21 0.00558279
37.25 -0.00515603
37.29 0.0112296
37.33 -0.00435011
37.37 0.0118036
37.41 0.00349347
37.45 0.00414024
37.49 0.0143347
37.53 0.00993375
37.57 -0.00751031
37.61 -0.00596155
37.65 0.0181822
37.69 0.0218435
37.73 0.0193847
37.77 0.0335262
37.81 0.0553965
37.85 0.0748483
37.89 0.132356
37.93 0.229345
37.97 0.330768
38.01 0.484125
38.05 0.517314
38.09 0.56031
38.13 0.467845
38.17 0.401777
38.21 0.293464
38.25 0.214381
38.29 0.206297
38.33 0.160794
38.37 0.136332
38.41 0.123671
38.45 0.115476
38.49 0.110866
38.53 0.0909646
38.57 0.132716
38.61 0.12004
38.65 0.125026
38.69 0.109409
38.73 0.0895061
38.77 0.0825238
38.81 0.0581564
38.85 0.0565352
38.89 0.0125721
38.93 0.0211047
38.97 0.0165562
39.01 0.0218207
39.05 0.0302776
39.09 0.00295656
39.13 0.0132073
39.17 0.00840579
39.21 -0.00268973
39.25 0.0163033
39.29 -0.000322884
39.33 -0.0126149
39.37 0.00698745
39.41 0.000386365
39.45 0.00283598
39.49 0.0101994
39.53 -0.00430016
39.57 0.00365128
39.61 0.0215308
39.65 0.0470737
39.69 0.0475925
39.73 0.050101
39.77 0.0523901
39.81 0.0627314
39.85 0.0544683
39.89 0.0273685
39.93 0.0279585
39.97 0.0214268
40.01 0.0307916
40.05 0.0368191
40.09 0.0661697
40.13 0.10878
40.17 0.184251
40.21 0.242087
40.25 0.329501
40.29 0.342297
40.33 0.317992
40.37 0.261151
40.41 0.167441
40.45 0.123109
40.49 0.0686862
40.53 0.0258648
40.57 0.0250904
40.61 0.00115817
40.65 -0.0084579
40.69 0.00323586
40.73 -0.00839391
40.77 0.0116664
40.81 0.0110308
40.85 -0.000114379
40.89 -0.00107534
40.93 -0.00138418
40.97 -0.0045384
41.01 -0.0134795
41.05 0.00667193
41.09 0.00362366
41.13 -0.00100509
41.17 -0.00650467
41.21 0.0203818
41.25 0.0163914
41.29 0.0327765
41.33 0.0299293
41.37 0.0449529
41.41 0.0548776
41.45 0.062022
41.49 0.0452012
41.53 0.0350141
41.57 0.0189867
41.61 0.033437
41.65 0.0208936
41.69 0.0289235
41.73 0.00956627
41.77 0.0292727
41.81 0.0376375
41.85 0.0940933
41.89 0.139417
41.93 0.248384
41.97 0.329251
42.01 0.429342
42.05 0.517326
42.09 0.491403
42.13 0.411583
42.17 0.32813
42.21 0.221412
42.25 0.152535
42.29 0.0980819
42.33 0.0707674
42.37 0.0364447
42.41 0.00591489
42.45 0.000257065
42.49 0.00171896
42.53 0.00936566
42.57 0.0233198
42.61 0.0336095
42.65 0.0269188
42.69 0.0281746
42.73 0.0265349
42.77 0.0805722
42.81 0.101688
42.85 0.158441
42.89 0.172242
42.93 0.150717
42.97 0.171412
43.01 0.137341
43.05 0.0895359
43.09 0.0957413
43.13 0.0282125
43.17 0.0434941
43.21 0.0186965
43.25 0.00915877
43.29 -0.000175803
43.33 0.0234104
43.37 -0.0124621
43.41 -0.00918861
43.45 -0.000264144
43.49 0.0175534
43.53 0.028804
43.57 0.0676255
43.61 0.151012
43.65 0.235215
43.69 0.364922
43.73 0.594964
43.77 0.761278
43.81 0.82211
43.85 0.748482
43.89 0.630246
43.93 0.445015
43.97 0.281116
44.01 0.169049
44.05 0.0925631
44.09 0.0459264
44.13 0.037227
44.17 0.0278211
44.21 0.0130453
44.25 0.00921802
44.29 0.0170336
44.33 0.00458475
44.37 0.0197499
44.41 0.00444518
44.45 0.0311744
44.49 -0.0140784
44.53 0.0109951
44.57 0.00781067
44.61 0.00242949
44.65 0.0241883
44.69 0.0348548
44.73 0.0878651
44.77 0.0659181
44.81 0.132932
44.85 0.133149
44.89 0.107468
44.93 0.097798
44.97 0.0710284
45.01 0.0281521
45.05 0.0113422
45.09 0.00643484
45.13 0.0181989
45.17 0.00515439
45.21 -0.00795759
45.25 -0.00184449
45.29 0.045092
45.33 0.0668405
45.37 0.0709709
45.41 0.069743
45.45 0.0460102
45.49 0.0316849
45.53 0.000948808
45.57 0.021309
45.61 0.00709228
45.65 -0.00977977
45.69 0.0121267
45.73 0.00697836
45.77 0.0122234
45.81 0.0288543
45.85 0.0553753
45.89 0.0650458
45.93 0.0630282
45.97 0.0685152
46.01 0.0930333
46.05 0.0984153
46.09 0.106642
46.13 0.154294
46.17 0.219766
46.21 0.290912
46.25 0.377288
46.29 0.408837
46.33 0.359621
46.37 0.268675
46.41 0.203595
46.45 0.136336
46.49 0.0755238
46.53 0.027224
46.57 0.00307421
46.61 0.00522438
46.65 -0.00905153
46.69 -0.000756835
46.73 0.00416787
46.77 0.00668158
46.81 0.026615
46.85 0.0620969
46.89 0.0520852
46.93 0.0848705
46.97 0.076228
47.01 0.0717811
47.05 0.052945
47.09 0.0404765
47.13 0.0239346
47.17 0.0231568
47.21 0.0307563
47.25 0.0404577
47.29 0.039043
47.33 0.0276012
47.37 0.00709357
47.41 0.0140258
47.45 -0.014199
47.49 0.0129618
47.53 -0.00066158
47.57 0.00768624
47.61 0.00236473
47.65 0.00961211
47.69 0.0200981
47.73 0.0034049
47.77 0.0304087
47.81 0.0669472
47.85 0.0821986
47.89 0.0816269
47.93 0.061273
47.97 0.0629239
48.01 0.0204594
48.05 0.0357349
48.09 0.00267813
48.13 0.00785299
48.17 0.00308448
48.21 -0.00395241
48.25 0.0012878
48.29 -0.0103481
48.33 -0.00434197
48.37 0.00886498
48.41 -0.00394558
48.45 0.00401599
48.49 0.00200495
48.53 0.0134968
48.57 0.0136216
48.61 0.0328171
48.65 0.0257113
48.69 0.0218491
48.73 0.00664134
48.77 0.00198934
48.81 0.0115701
48.85 -0.00231692
48.89 -0.0126741
48.93 -0.00965008
48.97 0.00443435
49.01 0.00404093
49.05 0.0126641
49.09 0.0134001
49.13 0.00323874
49.17 -0.00959018
49.21 0.0242256
49.25 0.0211786
49.29 0.00895478
49.33 0.0149563
49.37 0.00789782
49.41 0.0186429
49.45 0.0173109
49.49 0.0273031
49.53 0.035291
49.57 0.0388233
49.61 0.0638267
49.65 0.0704935
49.69 0.105865
49.73 0.151121
49.77 0.276518
49.81 0.363748
49.85 0.553462
49.89 0.720799
49.93 0.828732
49.97 0.878484
50.01 0.805887
50.05 0.649602
50.09 0.464788
50.13 0.321774
50.17 0.202838
50.21 0.119024
50.25 0.0730394
50.29 0.0300414
50.33 0.00501398
50.37 0.0155285
50.41 0.0100685
50.45 -0.00343132
50.49 -0.00754953
50.53 -0.000361848
50.57 0.00704541
50.61 -0.00993629
50.65 0.00493944
50.69 -0.00590519
50.73 -0.000457642
50.77 -0.00380742
50.81 0.000247175
50.85 -0.00441772
50.89 0.0165455
50.93 0.00574965
50.97 0.0044675
51.01 -0.00751896
51.05 0.00459743
51.09 0.0134933
51.13 -0.000864157
51.17 -0.00665476
51.21 -2.47106e-05
51.25 -0.0116887
51.29 -0.00919656
51.33 -0.00753356
51.37 -0.00294012
51.41 -0.00834249
51.45 -0.0061415
51.49 -0.00794209
51.53 -0.00713611
51.57 -0.00341982
51.61 0.000646578
51.65 0.0125757
51.69 0.028383
51.73 0.00495875
51.77 0.0205787
51.81 0.0181948
51.85 0.0131104
51.89 0.0337348
51.93 0.0155261
51.97 0.00904792
52.01 0.0216714
52.05 0.00330472
52.09 -0.0018743
52.13 -0.0102855
52.17 0.00233472
52.21 0.0042885
52.25 -0.00074915
52.29 -0.00473825
52.33 0.019857
52.37 0.0301773
52.41 0.0389064
52.45 0.0457315
52.49 0.08793
52.53 0.116734
52.57 0.137131
52.61 0.178223
52.65 0.180742
52.69 0.170625
52.73 0.171123
52.77 0.132975
52.81 0.10582
52.85 0.0860084
52.89 0.105448
52.93 0.112316
52.97 0.118156
53.01 0.132776
53.05 0.130974
53.09 0.108908
53.13 0.084542
53.17 0.067712
53.21 0.0538835
53.25 0.0234457
53.29 0.0132547
53.33 0.00599282
53.37 0.00266988
53.41 -0.0121279
53.45 0.0112403
53.49 0.0244156
53.53 0.0460654
53.57 0.0859822
53.61 0.12853
53.65 0.170292
53.69 0.222404
53.73 0.277002
53.77 0.319642
53.81 0.32332
53.85 0.281249
53.89 0.222681
53.93 0.145441
53.97 0.0836943
54.01 0.0387688
54.05 0.00672743
54.09 0.019436
54.13 0.00299854
54.17 0.0192435
54.21 0.0246593
54.25 0.0331969
54.29 0.0648998
54.33 0.0611516
54.37 0.0472312
54.41 0.0201766
54.45 0.0229583
54.49 0.00389625
54.53 -0.00781443
54.57 -0.00326201
54.61 -0.010386
54.65 0.00371723
54.69 0.011723
54.73 0.0234931
54.77 0.0447567
54.81 0.0574604
54.85 0.0605097
54.89 0.0751097
54.93 0.0770034
54.97 0.0756353
55.01 0.0640539
55.05 0.04935
55.09 0.0445684
55.13 0.0421516
55.17 0.0142466
55.21 0.0480153
55.25 0.0354402
55.29 0.0511442
55.33 0.0645397
55.37 0.10296
55.41 0.147416
55.45 0.121627
55.49 0.138247
55.53 0.132459
55.57 0.145084
55.61 0.107983
55.65 0.100869
55.69 0.0844699
55.73 0.0702999
55.77 0.0552735
55.81 0.026285
55.85 0.00386796
55.89 0.00966807
55.93 -0.012886
55.97 -0.00969449
56.01 -0.001804
56.05 -0.00189982
56.09 0.00887069
56.13 0.00288758
56.17 0.032108
56.21 0.049539
56.25 0.056798
56.29 0.07028
56.33 0.0724049
56.37 0.0711252
56.41 0.0645072
56.45 0.0412746
56.49 0.0373906
56.53 0.0270242
56.57 0.0279924
56.61 0.00143103
56.65 0.00515311
56.69 -0.00328351
56.73 0.0040921
56.77 -0.00547478
56.81 0.00238295
56.85 0.0138109
56.89 -0.0074755
56.93 -0.00563544
56.97 -0.00725697
57.01 -0.0042102
57.05 -0.00715383
57.09 0.00602733
57.13 -0.000847699
57.17 -0.0101451
57.21 0.0116044
57.25 0.0152374
57.29 0.0126125
57.33 0.00577134
57.37 -0.00828847
57.41 0.0195529
57.45 0.00446144
57.49 -0.00488485
57.53 0.00758757
57.57 -0.00584022
57.61 0.0019458
57.65 0.00436284
57.69 0.0171265
57.73 -0.0047708
57.77 0.00137236
57.81 -0.00217469
57.85 0.00870164
57.89 0.0121417
57.93 -0.00632927
57.97 0.000439939
58.01 0.0121682
58.05 0.0203256
58.09 -0.000184981
58.13 0.00271764
58.17 0.00666605
58.21 0.00294979
58.25 0.00553225
58.29 0.0110249
58.33 0.026702
58.37 0.0214507
58.41 0.032953
58.45 0.00703619
58.49 0.0173272
58.53 0.0280319
58.57 0.0167508
58.61 0.00634935
58.65 0.012361
58.69 0.0161471
58.73 0.00906455
58.77 -0.000671127
58.81 0.00519457
58.85 0.00431298
58.89 0.0170925
58.93 0.03198
58.97 0.0291351
59.01 0.0344076
59.05 0.0374245
59.09 0.0264072
59.13 0.010812
59.17 0.0153501
59.21 0.0195106
59.25 0.00874632
59.29 0.0204633
59.33 0.000932997
59.37 0.000919148
59.41 -0.00176845
59.45 0.0064534
59.49 -0.00842916
59.53 0.0049534
59.57 0.0150349
59.61 0.00175854
59.65 -0.00478822
59.69 0.0146801
59.73 0.0050606
59.77 -0.0107682
59.81 -0.00948063
59.85 0.0102171
59.89 0.00324042
59.93 0.00238191
59.97 0.0127386
60.01 0.00592165
60.05 0.0307778
60.09 0.0251629
60.13 0.0312488
60.17 0.0216482
60.21 0.035458
60.25 0.0445074
60.29 0.023933
60.33 0.0251454
60.37 0.0331259
60.41 0.0124968
60.45 0.00710601
60.49 -0.00713678
60.53 -0.00520205
60.57 0.00929039
60.61 -0.00540453
60.65 0.00243079
60.69 0.0130639
60.73 0.0187573
60.77 0.0371407
60.81 0.0366084
60.85 0.0293705
60.89 0.052352
60.93 0.0418603
60.97 0.0548739
61.01 0.0375366
61.05 0.0584618
61.09 0.0438099
61.13 0.0453929
61.17 0.0268425
61.21 0.0361109
61.25 0.0240872
61.29 0.0130132
61.33 0.0143733
61.37 -0.00158734
61.41 0.0167569
61.45 0.0148372
61.49 0.0168906
61.53 0.025748
61.57 0.0343008
61.61 0.0382752
61.65 0.0485579
61.69 0.0321932
61.73 0.0218864
61.77 0.00987232
61.81 0.0361509
61.85 0.0175632
61.89 0.0299779
61.93 0.0142338
61.97 0.00139455
62.01 0.00231169
62.05 0.00130116
62.09 -0.00184764
62.13 0.0187347
62.17 0.000439191
62.21 0.00470832
62.25 0.00840419
62.29 0.0139138
62.33 -0.00356022
62.37 0.00370469
62.41 -0.00880794
62.45 -0.0084157
62.49 -0.0104552
62.53 0.00101246
62.57 0.00147376
62.61 0.00361088
62.65 0.00500091
62.69 0.00536851
62.73 0.0156215
62.77 0.00898546
62.81 0.0187924
62.85 0.0387289
62.89 0.032384
62.93 0.0512007
62.97 0.0694943
63.01 0.0544711
63.05 0.0646387
63.09 0.0577534
63.13 0.0541719
63.17 0.0518607
63.21 0.0511343
63.25 0.0430313
63.29 0.0344655
63.33 0.0349794
63.37 0.0178213
63.41 0.00434849
63.45 0.0104713
63.49 0.00552564
63.53 0.0110576
63.57 0.00814881
63.61 0.00579523
63.65 -0.0020615
63.69 0.0118012
63.73 -0.00205182
63.77 -0.00236253
63.81 0.00128164
63.85 0.0241271
63.89 0.0113723
63.93 0.0171074
63.97 0.00671139
64.01 0.0095386
64.05 0.0313409
64.09 0.0135026
64.13 0.0181199
64.17 0.0281849
64.21 0.0235391
64.25 0.0238748
64.29 0.0234187
64.33 0.0384963
64.37 0.0302347
64.41 0.0397283
64.45 0.0262456
64.49 0.0452041
64.53 0.0426295
64.57 0.0446848
64.61 0.0357502
64.65 0.0395893
64.69 0.0337281
64.73 0.037193
64.77 0.0320528
64.81 0.0299225
64.85 0.0313405
64.89 0.0177873
64.93 0.0214134
64.97 0.00997915
65.01 0.00845286
65.05 0.0239756
65.09 0.00992932
65.13 0.0121371
65.17 -0.0102054
65.21 0.0101908
65.25 0.0128507
65.29 0.00817118
65.33 -0.00918882
65.37 0.0197219
65.41 0.0132361
65.45 0.0189074
65.49 0.0216646
65.53 0.0233066
65.57 0.0306485
65.61 0.0315383
65.65 0.0332244
65.69 0.0220261
65.73 0.0380009
65.77 0.0331397
65.81 0.039115
65.85 0.0290182
65.89 0.03492
65.93 0.0427125
65.97 0.0356933
66.01 0.0329882
66.05 0.0196186
66.09 0.0118115
66.13 0.0172485
66.17 0.0159843
66.21 0.0325267
66.25 0.0564908
66.29 0.0611004
66.33 0.0422307
66.37 0.0366821
66.41 0.0413572
66.45 0.0345808
66.49 0.0451225
66.53 0.0572899
66.57 0.0575928
66.61 0.0592164
66.65 0.0477266
66.69 0.0288296
66.73 0.0291419
66.77 0.0390673
66.81 0.0296199
66.85 0.00743769
66.89 0.0112415
66.93 -0.00330849
66.97 0.000500167
67.01 -0.00264129
67.05 -0.00621423
67.09 0.0193709
67.13 0.00747078
67.17 0.0201265
67.21 0.0168101
67.25 0.024434
67.29 0.0384586
67.33 0.0411294
67.37 0.0586509
67.41 0.0399495
67.45 0.0849137
67.49 0.0654231
67.53 0.0791877
67.57 0.0734112
67.61 0.0382036
67.65 0.0251673
67.69 0.0131381
67.73 0.0236915
67.77 0.0378505
67.81 0.00824408
67.85 0.00662441
67.89 0.0136954
67.93 0.0284758
67.97 0.0171091
68.01 0.0445538
68.05 0.021581
68.09 0.0212544
68.13 0.0311681
68.17 0.0151046
68.21 0.0200383
68.25 0.0284909
68.29 0.00666091
68.33 0.0120064
68.37 0.00211343
68.41 0.00026252
68.45 0.0125488
68.49 0.0101675
68.53 0.00871276
68.57 0.00402608
68.61 0.00417319
68.65 -0.00578699
68.69 0.00959807
68.73 0.0123147
68.77 -0.00452702
68.81 0.0200305
68.85 0.0190252
68.89 0.00892527
68.93 0.0222117
68.97 0.0241186
69.01 0.0133454
69.05 0.0157219
69.09 0.0216847
69.13 0.0281837
69.17 0.0244643
69.21 0.0412471
69.25 0.0474022
69.29 0.0557955
69.33 0.0474922
69.37 0.0390403
69.41 0.0498421
69.45 0.0407615
69.49 0.0277759
69.53 0.0240156
69.57 0.0356291
69.61 0.020485
69.65 0.00428184
69.69 0.0123458
69.73 0.00552519
69.77 0.00681079
69.81 0.0116682
69.85 -0.0104169
69.89 0.00156766
69.93 0.012462
69.97 0.0206852
70.01 0.0127651
70.05 0.0096582
70.09 0.00872288
70.13 0.00642425
70.17 -0.00793033
70.21 0.0325428
70.25 0.0232407
70.29 0.0458804
70.33 0.0385218
70.37 0.0568821
70.41 0.0498505
70.45 0.0470544
70.49 0.0614823
70.53 0.0458823
70.57 0.0492364
70.61 0.0268831
70.65 0.0248769
70.69 0.0127074
70.73 0.0139463
70.77 -0.00155754
70.81 0.00312349
70.85 0.00899378
70.89 -0.00339398
70.93 0.0037724
70.97 -0.000398157
71.01 0.00854417
71.05 -0.00313314
71.09 -0.000848193
71.13 0.00848425
71.17 -0.00153052
71.21 -0.0105056
71.25 0.013476
71.29 0.00871194
71.33 0.000455497
71.37 0.0228209
71.41 0.0204372
71.45 0.00239935
71.49 0.00378394
71.53 0.0249024
71.57 0.0204322
71.61 0.0212588
71.65 0.0246717
71.69 0.0242921
71.73 0.0316202
71.77 0.0244525
71.81 0.0225332
71.85 0.019867
71.89 0.0206962
71.93 0.02609
71.97 0.00186283
72.01 -0.00629187
72.05 0.0161355
72.09 0.0119185
72.13 0.00371892
72.17 0.0102496
72.21 0.00177697
72.25 0.012284
72.29 0.00441701
72.33 0.00494152
72.37 0.0154042
72.41 0.0135089
72.45 0.014427
72.49 0.0169414
72.53 0.0213308
72.57 0.0227278
72.61 0.0320616
72.65 0.0144885
72.69 0.0130199
72.73 0.00461533
72.77 0.00795333
72.81 0.0115677
72.85 0.0154527
72.89 -0.0040213
72.93 0.0232735
72.97 0.0265535
73.01 0.0306074
73.05 0.0456176
73.09 0.0358069
73.13 0.0461777
73.17 0.059169
73.21 0.0349096
73.25 0.0279465
73.29 0.0339307
73.33 0.0409083
73.37 0.0284395
73.41 0.0280751
73.45 0.0222706
73.49 0.0236502
73.53 0.0257448
73.57 0.0286441
73.61 0.0119406
73.65 0.0289283
73.69 0.00817841
73.73 0.0211597
73.77 0.0414625
73.81 0.029534
73.85 0.0218193
73.89 0.012318
73.93 0.0333848
73.97 0.0168582
74.01 0.0194511
74.05 0.0186644
74.09 0.00250344
74.13 0.018795
74.17 0.0198708
74.21 0.00300124
74.25 0.0140701
74.29 0.00274488
74.33 0.00682364
74.37 0.00431349
74.41 -0.00827847
74.45 -0.0101075
74.49 -0.00703206
74.525 -0.0104873