File: data/xrd/xy/2019-06-18T20_49_29.598214+00_00_LBL_F1.xy
'Id: "" Comment: "Integrate frame neopen_trifluo_03_001.gfrmwith cursor Wedge Cursor #3" Operator: "UC Berkeley" Anode: "Co" Scantype: "TwoTheta" TimePerStep: "700"
14.215 -0.0242766
14.255 0.00423298
14.295 0.00869867
14.335 0.0275163
14.375 0.038166
14.415 0.00820306
14.455 0.0202036
14.495 0.00801526
14.535 0.0355425
14.575 0.0437766
14.615 0.0724551
14.655 0.120034
14.695 0.14027
14.735 0.126659
14.775 0.158129
14.815 0.14619
14.855 0.117601
14.895 0.0976084
14.935 0.0319322
14.975 0.0395468
15.015 0.018592
15.055 -0.00660179
15.095 0.00169149
15.135 0.0201773
15.175 0.00298269
15.215 0.00191303
15.255 0.0234785
15.295 0.0256207
15.335 0.019032
15.375 -0.0157908
15.415 0.0293825
15.455 -0.000306241
15.495 0.0295208
15.535 0.0361001
15.575 0.0211419
15.615 0.0383953
15.655 0.0205249
15.695 0.0553195
15.735 0.0322682
15.775 0.0115377
15.815 0.0253522
15.855 -0.0101699
15.895 0.00654938
15.935 0.0337376
15.975 0.0519771
16.015 0.0156794
16.055 0.0117394
16.095 0.0458293
16.135 0.012738
16.175 0.0163628
16.215 0.00275187
16.255 -0.00258983
16.295 0.0163007
16.335 0.042427
16.375 0.028164
16.415 0.0240993
16.455 -0.0144966
16.495 0.0603943
16.535 0.028936
16.575 0.0489712
16.615 0.0267006
16.655 0.0353526
16.695 0.0394463
16.735 0.0334339
16.775 0.0421612
16.815 0.0460838
16.855 0.0345906
16.895 -0.0153508
16.935 0.00422566
16.975 0.0091948
17.015 0.0275882
17.055 0.0229339
17.095 0.0371123
17.135 0.0496532
17.175 0.0196458
17.215 0.00395589
17.255 0.000155382
17.295 0.000985418
17.335 0.0059425
17.375 0.00507404
17.415 0.0121685
17.455 0.0250353
17.495 0.0471297
17.535 0.0336141
17.575 -0.0161637
17.615 0.0196384
17.655 0.0051444
17.695 0.0128635
17.735 0.0230771
17.775 0.0159458
17.815 0.00285285
17.855 0.0201661
17.895 0.0151455
17.935 0.0208094
17.975 0.0187587
18.015 -0.0081399
18.055 0.00586599
18.095 0.00378281
18.135 0.0262203
18.175 0.0275771
18.215 -0.0162642
18.255 -0.0101975
18.295 -0.00318914
18.335 0.01239
18.375 0.024684
18.415 -0.0236767
18.455 0.00403318
18.495 0.0132956
18.535 0.033164
18.575 0.0398686
18.615 0.0443197
18.655 -0.00961555
18.695 0.0507947
18.735 0.0323661
18.775 0.00733116
18.815 -0.00331967
18.855 0.0462253
18.895 0.0197392
18.935 0.015985
18.975 0.00986336
19.015 0.00578759
19.055 0.00317731
19.095 0.034107
19.135 0.0541128
19.175 0.0185479
19.215 0.0253496
19.255 0.035963
19.295 0.0121532
19.335 0.0447629
19.375 0.0399186
19.415 0.00159235
19.455 0.0654671
19.495 0.0197496
19.535 0.0733436
19.575 0.0563155
19.615 0.00715509
19.655 0.0612276
19.695 0.0220445
19.735 0.0297105
19.775 0.0172571
19.815 0.0488466
19.855 0.0328206
19.895 0.0222848
19.935 0.0558505
19.975 0.0234664
20.015 0.0130898
20.055 0.0747965
20.095 0.0382578
20.135 0.08361
20.175 0.0583534
20.215 0.0437447
20.255 0.038218
20.295 -0.0147279
20.335 0.0606912
20.375 0.0291948
20.415 0.0592547
20.455 0.0441128
20.495 0.0825755
20.535 0.0474651
20.575 -0.0227221
20.615 -0.0156285
20.655 0.0401455
20.695 0.0724151
20.735 0.0247701
20.775 0.0603524
20.815 0.0479456
20.855 0.0444702
20.895 0.0520939
20.935 0.0172376
20.975 0.0244514
21.015 0.0148308
21.055 0.0404821
21.095 0.0320218
21.135 0.0463613
21.175 0.0138496
21.215 0.0583998
21.255 0.0228748
21.295 0.071796
21.335 0.0434455
21.375 -0.014385
21.415 0.078425
21.455 0.0456208
21.495 0.0510306
21.535 0.00281696
21.575 0.0466003
21.615 0.0161448
21.655 0.0273525
21.695 0.0516987
21.735 0.038673
21.775 -0.00253277
21.815 0.0128664
21.855 -0.00913021
21.895 0.0170884
21.935 0.044616
21.975 0.00713198
22.015 0.039923
22.055 0.0186468
22.095 0.0186912
22.135 0.0244652
22.175 0.0338675
22.215 0.0518285
22.255 0.0878996
22.295 0.0274565
22.335 0.0184504
22.375 0.0466625
22.415 -0.0276137
22.455 -0.0101494
22.495 -0.00304014
22.535 0.0250324
22.575 0.0549837
22.615 0.0255864
22.655 -0.00770725
22.695 0.0258156
22.735 -0.0231666
22.775 0.0276962
22.815 0.0258851
22.855 0.00889766
22.895 0.0612521
22.935 0.0291412
22.975 0.0583451
23.015 0.0203365
23.055 -0.0101709
23.095 0.0387833
23.135 0.0315062
23.175 0.0332156
23.215 0.0574572
23.255 0.0142724
23.295 -0.00136575
23.335 0.0138096
23.375 0.0269277
23.415 0.0119986
23.455 0.0188
23.495 0.0413564
23.535 0.00580049
23.575 -0.000185057
23.615 0.0165768
23.655 -0.00741941
23.695 0.0443445
23.735 0.0201327
23.775 0.0295809
23.815 -0.000728622
23.855 0.0100766
23.895 -0.00223998
23.935 0.00811686
23.975 0.0307898
24.015 0.0148796
24.055 0.00103923
24.095 0.0160715
24.135 0.0101043
24.175 0.00718346
24.215 0.0502868
24.255 -0.0109238
24.295 0.00286771
24.335 0.0410667
24.375 0.0258728
24.415 -0.000941903
24.455 -0.00209994
24.495 0.0295707
24.535 0.0377164
24.575 0.0177314
24.615 -0.0131623
24.655 0.0211552
24.695 0.0518102
24.735 0.0114007
24.775 0.0189369
24.815 -0.00573716
24.855 0.00930116
24.895 0.0608958
24.935 0.0507969
24.975 0.0402265
25.015 0.0388028
25.055 0.0346531
25.095 0.0301545
25.135 -0.00686881
25.175 0.0302698
25.215 0.0504283
25.255 0.0550599
25.295 0.0890462
25.335 0.0250025
25.375 0.0384788
25.415 -0.0196875
25.455 0.0490072
25.495 0.0495519
25.535 0.00420562
25.575 0.0463981
25.615 0.0117425
25.655 -0.0118817
25.695 0.0018613
25.735 0.00189161
25.775 0.0455669
25.815 0.0500137
25.855 0.0514333
25.895 0.0181933
25.935 -0.0204429
25.975 0.0338631
26.015 -0.0135431
26.055 0.0199592
26.095 0.0437567
26.135 0.0254753
26.175 0.0563611
26.215 0.0309324
26.255 0.0404436
26.295 0.0734025
26.335 0.0549002
26.375 0.0201308
26.415 0.0170133
26.455 0.0253841
26.495 0.0161302
26.535 0.00475648
26.575 0.0106532
26.615 0.0429879
26.655 0.0459776
26.695 -0.00435206
26.735 0.00297553
26.775 -0.00557248
26.815 0.00583057
26.855 0.0186604
26.895 -0.00964289
26.935 0.0152825
26.975 -0.0091938
27.015 0.0211216
27.055 0.0192057
27.095 0.0237838
27.135 0.0834545
27.175 0.0542507
27.215 0.0305703
27.255 0.0315045
27.295 0.0400769
27.335 0.0191382
27.375 0.038323
27.415 0.0231794
27.455 -0.0201662
27.495 -0.00315001
27.535 0.0431466
27.575 0.0240737
27.615 0.000463703
27.655 -0.0110171
27.695 0.0339494
27.735 -0.0119583
27.775 0.0152858
27.815 -0.0075324
27.855 0.00193398
27.895 0.0190995
27.935 0.0343561
27.975 0.00313853
28.015 0.00536884
28.055 0.00242901
28.095 0.00798595
28.135 0.0153597
28.175 -0.0109643
28.215 0.0128244
28.255 -0.0158128
28.295 -0.0139747
28.335 0.019846
28.375 0.00851939
28.415 0.0267024
28.455 0.0141592
28.495 0.0291278
28.535 0.0172671
28.575 -0.0131131
28.615 0.0288371
28.655 0.00319786
28.695 0.0121614
28.735 -0.00687253
28.775 -0.0113166
28.815 -0.000567613
28.855 0.0102897
28.895 0.0143593
28.935 0.0671175
28.975 0.0876523
29.015 0.0426619
29.055 0.0565104
29.095 0.0320307
29.135 0.0424678
29.175 0.0438217
29.215 0.0528596
29.255 0.0270152
29.295 0.0656561
29.335 0.0714056
29.375 0.0328739
29.415 0.0347131
29.455 0.0156353
29.495 0.010877
29.535 0.0101471
29.575 0.0315749
29.615 0.0464346
29.655 0.0948218
29.695 0.060493
29.735 0.0450312
29.775 0.0372022
29.815 0.0257721
29.855 0.0627321
29.895 0.00816433
29.935 0.0441525
29.975 0.0547046
30.015 0.069274
30.055 0.171613
30.095 0.223952
30.135 0.358278
30.175 0.430205
30.215 0.442487
30.255 0.319127
30.295 0.24387
30.335 0.10719
30.375 0.090016
30.415 0.0399844
30.455 -0.0160804
30.495 0.0256637
30.535 0.00934311
30.575 0.0175614
30.615 -0.0090997
30.655 -0.0114873
30.695 -0.000668283
30.735 0.0109885
30.775 0.0235499
30.815 -0.0111465
30.855 0.00897366
30.895 0.0241638
30.935 0.0116117
30.975 0.00566017
31.015 -0.00602313
31.055 0.0219599
31.095 0.0248094
31.135 -0.00686913
31.175 -0.0125015
31.215 0.0436809
31.255 -0.00623255
31.295 0.0214966
31.335 0.00329391
31.375 0.0191117
31.415 -0.00806315
31.455 0.00970743
31.495 -0.00650712
31.535 0.00615315
31.575 -0.00501614
31.615 0.0319616
31.655 -0.00111367
31.695 -0.0166018
31.735 0.00494684
31.775 -0.0221536
31.815 0.00060108
31.855 -0.000541821
31.895 0.0110874
31.935 0.00614259
31.975 0.00613086
32.015 0.011447
32.055 0.031091
32.095 0.0149577
32.135 0.0297314
32.175 0.0258241
32.215 -0.000710013
32.255 0.00861071
32.295 -0.00588733
32.335 0.00240576
32.375 0.0109559
32.415 0.00598146
32.455 0.0264478
32.495 0.0091713
32.535 0.046444
32.575 0.0256613
32.615 0.0253492
32.655 0.0219537
32.695 0.0396718
32.735 0.00326653
32.775 0.0371553
32.815 0.00412475
32.855 0.00466673
32.895 0.0516743
32.935 0.040183
32.975 0.0303335
33.015 0.0467479
33.055 0.0375869
33.095 0.0518996
33.135 0.0238129
33.175 0.03205
33.215 0.0136448
33.255 0.0141167
33.295 0.0560371
33.335 0.024636
33.375 -0.0113525
33.415 0.0263952
33.455 0.0319772
33.495 0.0405314
33.535 0.016713
33.575 0.00522759
33.615 0.0325207
33.655 0.0271279
33.695 0.0258431
33.735 -0.017441
33.775 0.0160283
33.815 -0.0104156
33.855 0.0259259
33.895 0.00617913
33.935 0.0260427
33.975 0.00467397
34.015 0.0345634
34.055 0.00315911
34.095 -0.00403643
34.135 -0.0042819
34.175 0.0130581
34.215 0.0170399
34.255 -0.00302707
34.295 0.0110158
34.335 0.0131678
34.375 0.00265945
34.415 0.0171827
34.455 0.0147729
34.495 0.00857012
34.535 0.00755384
34.575 -0.00768651
34.615 0.0237898
34.655 0.011237
34.695 -0.000492816
34.735 -0.0148893
34.775 -0.0247169
34.815 -0.00314655
34.855 -0.00583814
34.895 -0.00323352
34.935 -0.0120847
34.975 -0.00275253
35.015 -0.0230013
35.055 0.0103591
35.095 -0.00366315
35.135 0.00732945
35.175 -0.00268336
35.215 -0.0266662
35.255 0.000635766
35.295 -0.020419
35.335 -0.0184439
35.375 0.00699056
35.415 -0.00469142
35.455 -0.00444954
35.495 -0.00382466
35.535 -0.0178708
35.575 -0.0195766
35.615 -0.0144356
35.655 -0.0117032
35.695 0.00307014
35.735 0.0065911
35.775 0.0207338
35.815 0.00928547
35.855 -0.00234162
35.895 0.00279887
35.935 0.018386
35.975 0.00360361
36.015 -0.00293139
36.055 0.0130806
36.095 0.00528885
36.135 0.00717042
36.175 -0.0127127
36.215 0.000429813
36.255 0.0115529
36.295 0.00502324
36.335 -0.0019643
36.375 -0.0029963
36.415 -0.0019517
36.455 -0.0142858
36.495 -0.00840739
36.535 -0.00516044
36.575 -0.0141743
36.615 -0.0130064
36.655 -0.0247854
36.695 -0.00270402
36.735 -0.0257992
36.775 -0.0136677
36.815 -0.00581669
36.855 -0.0158396
36.895 -0.00386408
36.935 0.000313976
36.975 0.00993736
37.015 -0.00644828
37.055 0.0033927
37.095 0.00142711
37.135 0.0073176
37.175 0.000937289
37.215 -0.00501867
37.255 0.00453775
37.295 0.0105444
37.335 -0.0162049
37.375 0.0044578
37.415 0.0090722
37.455 -0.0143529
37.495 -0.0116575
37.535 -0.0114159
37.575 -0.010627
37.615 0.0101385
37.655 -0.0217145
37.695 0.0119386
37.735 0.00832446
37.775 -0.00806893
37.815 -0.0109465
37.855 -0.00711835
37.895 -0.0175148
37.935 -0.0050179
37.975 0.011739
38.015 -0.00635468
38.055 -0.00336933
38.095 -0.0149731
38.135 -0.00304088
38.175 -0.000724426
38.215 -0.0256064
38.255 -0.0131761
38.295 -0.00357369
38.335 0.00573886
38.375 0.00720528
38.415 0.0146516
38.455 -0.0150781
38.495 -0.0125604
38.535 -0.0195516
38.575 0.0068895
38.615 -0.0204843
38.655 0.00171331
38.695 0.00249886
38.735 -0.00879896
38.775 -0.00117221
38.815 -0.0109663
38.855 -0.00597173
38.895 0.0146838
38.935 -0.000388573
38.975 -0.0041396
39.015 -0.00174993
39.055 -0.0117826
39.095 -0.00167136
39.135 -0.00734623
39.175 -0.0143431
39.215 -0.0168297
39.255 -0.00459742
39.295 -0.0200591
39.335 -0.0207482
39.375 -0.0160653
39.415 -0.0179332
39.455 -0.00337629
39.495 -0.0204784
39.535 -0.0183604
39.575 0.00529138
39.615 -0.0113472
39.655 0.0200447
39.695 0.00535483
39.735 -0.0185632
39.775 0.0112238
39.815 0.0289478
39.855 0.0356722
39.895 0.0627742
39.935 0.0855941
39.975 0.145832
40.015 0.238506
40.055 0.297836
40.095 0.355259
40.135 0.387657
40.175 0.308193
40.215 0.227484
40.255 0.127073
40.295 0.0886622
40.335 0.0411533
40.375 0.0384174
40.415 -0.004268
40.455 0.0213144
40.495 0.0215158
40.535 0.00754955
40.575 0.0205721
40.615 -0.00986357
40.655 -0.00178445
40.695 -0.0068186
40.735 -0.0124814
40.775 0.00841887
40.815 0.0130204
40.855 0.00293403
40.895 -0.0105483
40.935 0.00406508
40.975 0.00317763
41.015 -0.00973865
41.055 -0.00305987
41.095 0.0111742
41.135 -0.00496521
41.175 -0.00129664
41.215 -0.00343062
41.255 -0.0148474
41.295 -0.000197675
41.335 0.00699438
41.375 -0.0221075
41.415 -0.00118144
41.455 0.00364964
41.495 -0.0145189
41.535 -0.0137912
41.575 -0.00867507
41.615 -0.00900047
41.655 -0.0153576
41.695 0.0021768
41.735 -0.0141266
41.775 -0.00295785
41.815 0.0224301
41.855 0.0102946
41.895 -0.0107348
41.935 0.0107826
41.975 0.0084993
42.015 -0.00259902
42.055 0.00255256
42.095 -0.0023687
42.135 8.18229e-05
42.175 0.00148471
42.215 -0.0139891
42.255 0.0133618
42.295 -0.00230779
42.335 0.0266818
42.375 -0.00947684
42.415 -0.0107148
42.455 0.0015727
42.495 -0.00471884
42.535 0.000734261
42.575 0.0044343
42.615 -0.00290026
42.655 0.00677905
42.695 0.00718209
42.735 0.00219524
42.775 -0.0088184
42.815 -0.0125855
42.855 0.0144431
42.895 0.0399806
42.935 -0.00781402
42.975 0.00583568
43.015 0.00421201
43.055 0.00167089
43.095 -0.000755767
43.135 0.00889643
43.175 -0.00909258
43.215 0.000606105
43.255 -0.00668459
43.295 -0.0122863
43.335 -0.00392542
43.375 0.00450206
43.415 0.00515041
43.455 -0.00723841
43.495 -0.00219451
43.535 -0.00312241
43.575 0.021371
43.615 -0.0128486
43.655 0.00848816
43.695 0.00979057
43.735 0.00695827
43.775 0.0285187
43.815 -0.016133
43.855 0.00615561
43.895 -0.00765633
43.935 -0.00174379
43.975 0.00200049
44.015 -0.00364211
44.055 -0.0169917
44.095 -0.00701122
44.135 -0.0147233
44.175 0.0105577
44.215 0.00533549
44.255 0.000953779
44.295 0.0021866
44.335 -0.00947733
44.375 0.0165663
44.415 0.00046052
44.455 0.00219087
44.495 0.00880535
44.535 -0.00601736
44.575 -0.00308245
44.615 0.00776321
44.655 0.0231933
44.695 0.0084309
44.735 0.0233147
44.775 0.0207913
44.815 0.00856132
44.855 0.0147907
44.895 0.0338502
44.935 0.0294668
44.975 0.0890302
45.015 0.153389
45.055 0.225884
45.095 0.298542
45.135 0.343824
45.175 0.319641
45.215 0.291616
45.255 0.260979
45.295 0.176249
45.335 0.106936
45.375 0.0645525
45.415 0.0175046
45.455 0.0212327
45.495 0.00530389
45.535 -0.00617918
45.575 -0.0142495
45.615 0.0103395
45.655 0.02004
45.695 0.00532597
45.735 0.000397352
45.775 0.0210733
45.815 -0.00165325
45.855 0.0183996
45.895 0.0169118
45.935 0.0409674
45.975 0.0664354
46.015 0.104842
46.055 0.161667
46.095 0.293137
46.135 0.40732
46.175 0.523169
46.215 0.57583
46.255 0.523479
46.295 0.473987
46.335 0.381279
46.375 0.284893
46.415 0.250599
46.455 0.150285
46.495 0.0787991
46.535 0.0537753
46.575 0.013721
46.615 0.0109459
46.655 0.00265127
46.695 -0.000144632
46.735 -0.00968783
46.775 0.00582819
46.815 -0.00775643
46.855 0.0100723
46.895 0.000682711
46.935 0.00101377
46.975 -0.0124111
47.015 -0.0122421
47.055 -0.000680127
47.095 0.00210995
47.135 0.0165546
47.175 -0.0122953
47.215 -0.00956365
47.255 0.00357382
47.295 0.00443114
47.335 0.00324629
47.375 0.00430114
47.415 0.0185971
47.455 0.0002645
47.495 -0.0118377
47.535 -0.00892053
47.575 -0.0149295
47.615 0.00344549
47.655 -0.0155353
47.695 0.0064998
47.735 0.00496461
47.775 -0.00587838
47.815 0.000480721
47.855 0.0140069
47.895 0.0197639
47.935 0.00138394
47.975 -0.00658421
48.015 -0.00416373
48.055 -0.00510257
48.095 -0.00374527
48.135 0.00560191
48.175 0.00104054
48.215 -0.0106885
48.255 -0.00646661
48.295 0.00510803
48.335 0.00749476
48.375 -0.0120858
48.415 0.00969335
48.455 0.0119965
48.495 0.00959693
48.535 0.0262387
48.575 0.0480871
48.615 0.0524166
48.655 0.0658965
48.695 0.0913238
48.735 0.10789
48.775 0.098193
48.815 0.0792012
48.855 0.0606525
48.895 0.0523423
48.935 0.0291095
48.975 0.0226886
49.015 0.0070335
49.055 0.00473818
49.095 0.0123861
49.135 -0.0113404
49.175 -0.00902634
49.215 -0.00274783
49.255 -0.0164012
49.295 -0.00273632
49.335 -0.00546534
49.375 -0.00392047
49.415 0.00364804
49.455 -0.00112032
49.495 -0.00893935
49.535 0.00749478
49.575 0.00305768
49.615 -0.00400663
49.655 -0.0113033
49.695 -0.00831786
49.735 -0.00952283
49.775 0.00187604
49.815 -0.00883064
49.855 -0.0177671
49.895 -0.013647
49.935 -0.0125372
49.975 -0.00488075
50.015 -0.00225736
50.055 -0.0122042
50.095 -0.00335716
50.135 -0.00529664
50.175 -0.0160298
50.215 -0.0102343
50.255 -0.0081657
50.295 0.00163567
50.335 0.00156114
50.375 -0.0163599
50.415 -0.0123281
50.455 0.00112768
50.495 0.014595
50.535 0.00212205
50.575 -0.0122007
50.615 0.00248321
50.655 0.00785158
50.695 0.00264526
50.735 -0.00110895
50.775 0.00703359
50.815 -0.00645396
50.855 -0.00580783
50.895 0.00602717
50.935 0.000465772
50.975 0.0198777
51.015 0.00375569
51.055 -0.0089346
51.095 0.00893863
51.135 0.0137954
51.175 -0.00577122
51.215 0.0217344
51.255 -0.000861646
51.295 -0.00498791
51.335 0.00420949
51.375 -0.0056564
51.415 -0.00135463
51.455 -0.00540399
51.495 -0.00548094
51.535 -0.0117763
51.575 -0.00296642
51.615 -0.0039619
51.655 -0.015415
51.695 -0.0144383
51.735 0.0006991
51.775 0.0001331
51.815 -0.0102618
51.855 -0.0151829
51.895 -0.000822704
51.935 -0.0120857
51.975 -0.00602573
52.015 -0.00190417
52.055 -0.00874279
52.095 -0.0120832
52.135 -0.00989328
52.175 -0.00543697
52.215 -0.0214964
52.255 -0.00230705
52.295 -0.00585155
52.335 -0.00990699
52.375 -0.0106761
52.415 0.00174223
52.455 -0.00615134
52.495 -0.00815869
52.535 -0.0117167
52.575 -0.00014956
52.615 0.00103721
52.655 -0.000668623
52.695 0.0109542
52.735 -0.00635801
52.775 -0.00123184
52.815 0.00101768
52.855 0.00416731
52.895 0.0130986
52.935 0.0100497
52.975 0.0245938
53.015 0.0218147
53.055 0.000387173
53.095 0.0118322
53.135 -0.0147684
53.175 0.015602
53.215 -0.0103727
53.255 -0.000870704
53.295 0.00662581
53.335 -0.00269892
53.375 0.0046557
53.415 -0.00477856
53.455 -0.00324312
53.495 0.0121245
53.535 -0.0218108
53.575 -0.00953629
53.615 0.00914207
53.655 -0.00132999
53.695 -0.00686149
53.735 -0.011028
53.775 -0.0157219
53.815 -0.0120577
53.855 -0.00605869
53.895 0.00180221
53.935 -0.001017
53.975 0.00493382
54.015 -0.000784213
54.055 0.00547474
54.095 -0.00127532
54.135 -0.000782562
54.175 0.00475563
54.215 -0.00864305
54.255 0.000438553
54.295 0.000448549
54.335 0.00618851
54.375 0.00530003
54.415 -0.00227311
54.455 0.0060325
54.495 -0.00202242
54.535 -0.00179053
54.575 -0.00604454
54.615 0.00572068
54.655 -0.00917705
54.695 -0.00542594
54.735 -0.00646385
54.775 -0.00515122
54.815 -0.00505025
54.855 0.0107084
54.895 -0.00413111
54.935 0.00465223
54.975 0.00253367
55.015 -0.00254371
55.055 -0.0174797
55.095 -0.0125287
55.135 -0.00396371
55.175 -0.0122175
55.215 -0.000856417
55.255 0.0037808
55.295 -0.0166374
55.335 0.00657519
55.375 -0.00122353
55.415 -0.00696143
55.455 -0.011431
55.495 0.00750975
55.535 -0.0111423
55.575 -0.000319734
55.615 0.00333589
55.655 -0.00223966
55.695 0.0146863
55.735 0.014434
55.775 0.00363382
55.815 0.000423849
55.855 0.0103406
55.895 -0.00440085
55.935 -0.0050917
55.975 0.000936237
56.015 0.0090402
56.055 0.0153229
56.095 0.0229892
56.135 0.0347357
56.175 0.0291647
56.215 0.0300224
56.255 0.0470021
56.295 0.028431
56.335 0.0295442
56.375 0.0193223
56.415 0.025577
56.455 -0.00133913
56.495 0.000153594
56.535 0.0214887
56.575 0.0146463
56.615 0.0206438
56.655 0.00533146
56.695 -0.0169699
56.735 0.013028
56.775 0.00138726
56.815 0.0129209
56.855 0.00429454
56.895 0.018689
56.935 -0.000483003
56.975 -0.00118555
57.015 0.0185855
57.055 0.00178113
57.095 -0.00732491
57.135 0.00402347
57.175 -0.00171993
57.215 -0.000159854
57.255 -0.00218225
57.295 0.00502252
57.335 -0.0205397
57.375 0.000541102
57.415 -0.00601001
57.455 -0.0172232
57.495 -0.00693183
57.535 -0.00247694
57.575 -0.0205105
57.615 -0.00168002
57.655 0.00353336
57.695 0.00430707
57.735 -0.00121785
57.775 0.0147253
57.815 -0.0106128
57.855 -0.00180205
57.895 0.00823427
57.935 0.00806439
57.975 0.00924653
58.015 0.0281159
58.055 -0.00471361
58.095 -0.00275574
58.135 0.00728861
58.175 0.00757611
58.215 0.00263697
58.255 0.00119519
58.295 -0.00171362
58.335 0.00591236
58.375 -0.00316921
58.415 -0.00374312
58.455 -0.010089
58.495 -0.00158166
58.535 0.00291183
58.575 -0.00459061
58.615 -0.00725964
58.655 0.0130742
58.695 0.0155103
58.735 -0.0140551
58.775 0.0168478
58.815 -0.00362172
58.855 -0.0020517
58.895 0.00995675
58.935 0.0176682
58.975 0.0117253
59.015 0.0145847
59.055 0.0198218
59.095 0.0223885
59.135 0.00494554
59.175 0.00476396
59.215 0.00681062
59.255 0.00931059
59.295 0.00827468
59.335 0.00988936
59.375 0.0162539
59.415 -0.00250271
59.455 -0.00820427
59.495 0.00869599
59.535 -0.0122012
59.575 0.00292548
59.615 -0.0050072
59.655 0.00321124
59.695 0.00422661
59.735 0.00685612
59.775 0.0115123
59.815 0.00751482
59.855 0.0177626
59.895 0.0188084
59.935 0.00432811
59.975 0.00695377
60.015 0.0175912
60.055 0.0156138
60.095 0.00715053
60.135 -0.000304436
60.175 0.0209399
60.215 0.00902199
60.255 0.00101098
60.295 0.00747122
60.335 -0.00322233
60.375 0.00295312
60.415 -0.000781832
60.455 -0.00174683
60.495 0.0177264
60.535 0.00760624
60.575 0.0173288
60.615 0.00545468
60.655 -0.00888802
60.695 0.00483567
60.735 0.00976564
60.775 -0.0194896
60.815 -0.004429
60.855 -0.00325926
60.895 -0.0117382
60.935 0.0143729
60.975 -0.00994921
61.015 -0.0167208
61.055 -0.0037805
61.095 -0.00553635
61.135 0.000419623
61.175 0.00441385
61.215 -0.00589214
61.255 0.0251885
61.295 0.0149094
61.335 0.0411073
61.375 0.0685877
61.415 0.101294
61.455 0.12514
61.495 0.166979
61.535 0.201174
61.575 0.18302
61.615 0.163499
61.655 0.142972
61.695 0.122055
61.735 0.101937
61.775 0.0870877
61.815 0.0604804
61.855 0.0282165
61.895 0.0261303
61.935 0.0170582
61.975 0.0012754
62.015 -0.00395003
62.055 -0.0058954
62.095 -0.0044119
62.135 -0.0137229
62.175 -0.002041
62.215 0.00180323
62.255 -0.00347198
62.295 0.00828316
62.335 -0.0191143
62.375 -0.00700651
62.415 0.000949879
62.455 0.0167933
62.495 -0.00501722
62.535 0.0068821
62.575 0.00939585
62.615 0.0144622
62.655 0.0226111
62.695 0.0200115
62.735 0.010861
62.775 0.0142962
62.815 0.00369529
62.855 0.0185786
62.895 0.0199111
62.935 0.00841495
62.975 0.0224643
63.015 0.00430497
63.055 -0.00615503
63.095 0.0184711
63.135 -0.0163814
63.175 0.0163643
63.215 -0.00422947
63.255 -0.00886075
63.295 -0.00839565
63.335 -0.00773204
63.375 -0.0174401
63.415 -0.00845705
63.455 -0.0176232
63.495 -0.00361032
63.535 0.00657003
63.575 -0.000142016
63.615 0.00714265
63.655 -0.0133472
63.695 0.00234031
63.735 -0.0174815
63.775 -0.00352215
63.815 -0.00144953
63.855 0.00329448
63.895 -0.00325136
63.935 -0.000367924
63.975 -0.00468712
64.015 0.0235267
64.055 -0.012188
64.095 -0.00440242
64.135 0.000451586
64.175 0.00240841
64.215 0.0149303
64.255 -0.00329461
64.295 -0.00781837
64.335 0.00277255
64.375 -0.0069872
64.415 -0.00264657
64.455 0.0125678
64.495 -0.00486525
64.535 -0.00553238
64.575 -0.000735725
64.615 -0.00518295
64.655 0.00201162
64.695 0.000978852
64.735 0.000987231
64.775 -0.0149171
64.815 -0.00012755
64.855 0.00121408
64.895 0.0134056
64.935 -0.00992308
64.975 -0.0144108
65.015 -0.00264995
65.055 0.00332315
65.095 -0.0118217
65.135 -0.00774102
65.175 -0.000507466
65.215 -0.00376805
65.255 0.0049871
65.295 -0.0151208
65.335 0.00438065
65.375 0.00104056
65.415 -0.0181301
65.455 -0.00283689
65.495 0.000314024
65.535 0.0151704
65.575 0.00565802
65.615 0.00079069
65.655 0.00575955
65.695 0.0055309
65.735 -0.0172734
65.775 -0.00475964
65.815 0.00699035
65.855 -0.00497914
65.895 -0.00100138
65.935 -0.000209456
65.975 -0.00569948
66.015 -0.00648664
66.055 -0.00513724
66.095 -0.0130148
66.135 -0.00471554
66.175 -0.00810688
66.215 0.0104146
66.255 -0.00274773
66.295 0.0122877
66.335 0.0216521
66.375 0.045692
66.415 0.0365774
66.455 0.0553308
66.495 0.0723801
66.535 0.0918366
66.575 0.10747
66.615 0.0994601
66.655 0.107425
66.695 0.0946423
66.735 0.0798003
66.775 0.0650724
66.815 0.0509429
66.855 0.0553482
66.895 0.020413
66.935 0.0121185
66.975 0.015764
67.015 0.0218887
67.055 0.000104674
67.095 0.00739175
67.135 -0.00868012
67.175 -0.00990217
67.215 -0.00336585
67.255 -0.0141601
67.295 -0.00239506
67.335 -0.0160875
67.375 -0.000920229
67.415 -0.00102597
67.455 0.000783999
67.495 0.000605611
67.535 -0.0100053
67.575 -0.00440374
67.615 -0.0137434
67.655 -0.000758009
67.695 0.00903038
67.735 0.0095135
67.775 -0.0158108
67.815 0.00924325
67.855 -0.0166688
67.895 -0.00828361
67.935 0.0186065
67.975 -0.0175861
68.015 0.0083122
68.055 -0.00371811
68.095 -0.00407413
68.135 0.00207341
68.175 0.00590953
68.215 0.006897
68.255 0.00546929
68.295 -0.00117687
68.335 0.00313256
68.375 -0.0154671
68.415 -0.0152786
68.455 -0.00390594
68.495 -0.0176337
68.525 -0.0176731