File: data/xrd/xy/2019-06-19T14_53_56.517003+00_00_LBL_C11.xy
'Id: "" Comment: "Integrate frame perovskite_04_001.gfrmwith cursor Wedge Cursor #4" Operator: "UC Berkeley" Anode: "Co" Scantype: "TwoTheta" TimePerStep: "400"
14.065 -0.0319397
14.105 0.0249776
14.145 -0.0109748
14.185 0.0619598
14.225 0.0386775
14.265 0.0519126
14.305 0.0594401
14.345 0.0643202
14.385 0.019473
14.425 0.0390411
14.465 0.080455
14.505 0.0100809
14.545 0.0089209
14.585 0.013258
14.625 0.0904508
14.665 0.0613614
14.705 0.103949
14.745 0.0945949
14.785 0.0143226
14.825 0.0558001
14.865 0.080194
14.905 0.134534
14.945 0.0377068
14.985 0.0260674
15.025 0.0872988
15.065 0.0236316
15.105 0.0989388
15.145 0.0362933
15.185 0.02452
15.225 0.0489253
15.265 0.00222053
15.305 0.0260214
15.345 0.0522814
15.385 0.0567443
15.425 -0.00271981
15.465 0.0189839
15.505 0.0127385
15.545 0.0483064
15.585 0.0375303
15.625 0.0228005
15.665 0.00597324
15.705 0.0475097
15.745 0.0814608
15.785 0.0157877
15.825 0.0131922
15.865 0.0451589
15.905 0.023214
15.945 0.010278
15.985 0.0163322
16.025 0.00894538
16.065 0.0255102
16.105 0.0718321
16.145 -0.0207406
16.185 0.0157562
16.225 0.0577882
16.265 0.0177127
16.305 0.0389714
16.345 0.0198374
16.385 0.0416118
16.425 0.0012068
16.465 0.00589736
16.505 0.083583
16.545 0.0207195
16.585 0.00971805
16.625 0.048627
16.665 0.0244685
16.705 0.0490913
16.745 0.0662159
16.785 0.0636484
16.825 0.00388055
16.865 0.0565799
16.905 0.0274915
16.945 0.0132294
16.985 0.0749217
17.025 0.034753
17.065 -0.00607582
17.105 -0.00594511
17.145 0.0112492
17.185 0.0234811
17.225 0.0744825
17.265 0.0762096
17.305 0.0577511
17.345 0.00259531
17.385 0.0261614
17.425 0.0251966
17.465 0.0554454
17.505 0.01381
17.545 0.0471349
17.585 0.0505961
17.625 -0.00611943
17.665 0.00864081
17.705 0.0211902
17.745 -0.00287215
17.785 0.0459977
17.825 0.0477891
17.865 0.0193807
17.905 0.0464209
17.945 0.0367116
17.985 0.0565958
18.025 0.0262798
18.065 0.0493068
18.105 0.068243
18.145 0.0687339
18.185 0.0883686
18.225 0.0824654
18.265 0.0786029
18.305 0.0266579
18.345 0.100766
18.385 0.0358587
18.425 0.0717167
18.465 0.0521439
18.505 -0.015048
18.545 0.0813041
18.585 0.0856565
18.625 -0.0310156
18.665 0.0493706
18.705 0.0746619
18.745 0.13402
18.785 0.101252
18.825 0.0603003
18.865 0.0320925
18.905 0.0240267
18.945 0.0473852
18.985 0.0444033
19.025 0.0217448
19.065 0.0437856
19.105 0.0604715
19.145 0.0321716
19.185 0.022653
19.225 0.0496704
19.265 0.0359136
19.305 0.0406826
19.345 0.0294651
19.385 0.0254721
19.425 0.0733744
19.465 0.0308075
19.505 0.0959157
19.545 0.0338872
19.585 0.077413
19.625 0.0155114
19.665 0.0646203
19.705 0.0572972
19.745 0.0422451
19.785 0.0727854
19.825 0.0520718
19.865 0.0611796
19.905 0.0710601
19.945 0.0617277
19.985 0.0596862
20.025 0.0485159
20.065 0.0641791
20.105 0.0187428
20.145 0.0656547
20.185 0.0837917
20.225 0.182247
20.265 0.163181
20.305 0.430817
20.345 1.01612
20.385 1.62571
20.425 2.05167
20.465 1.43096
20.505 0.716202
20.545 0.25542
20.585 0.0989133
20.625 0.0441514
20.665 0.0401524
20.705 0.0379068
20.745 0.00840547
20.785 0.0757106
20.825 0.0623464
20.865 0.0735223
20.905 0.0882782
20.945 0.0726224
20.985 0.100171
21.025 0.0327453
21.065 0.0444213
21.105 0.048393
21.145 0.0662165
21.185 0.0353923
21.225 0.0536938
21.265 0.0769167
21.305 0.0612063
21.345 0.0276185
21.385 -0.00835307
21.425 0.0306128
21.465 0.00653546
21.505 0.0184453
21.545 -0.0313039
21.585 0.0134704
21.625 0.0703229
21.665 0.0251142
21.705 0.051416
21.745 0.0574809
21.785 0.0520868
21.825 0.0631923
21.865 0.0608967
21.905 0.0450767
21.945 0.029431
21.985 0.0169886
22.025 0.040362
22.065 -0.0298527
22.105 0.0573051
22.145 0.00475907
22.185 0.0423574
22.225 0.00923385
22.265 0.0218314
22.305 0.0308725
22.345 0.0176758
22.385 0.0312552
22.425 0.00679784
22.465 0.0468893
22.505 0.0193393
22.545 0.00695609
22.585 0.00397157
22.625 0.0139147
22.665 0.047192
22.705 0.0292236
22.745 0.0458281
22.785 0.0245762
22.825 0.00570477
22.865 0.037806
22.905 0.0385342
22.945 -0.00439192
22.985 0.0253718
23.025 0.048719
23.065 0.0392748
23.105 0.0206288
23.145 0.0153086
23.185 0.0267476
23.225 -0.0227949
23.265 0.0527567
23.305 0.00947377
23.345 0.0343432
23.385 -0.0125312
23.425 0.068905
23.465 0.0535129
23.505 0.028212
23.545 0.0600304
23.585 0.0220974
23.625 0.0148479
23.665 0.0405542
23.705 0.0498686
23.745 0.0468981
23.785 0.0438935
23.825 0.0405114
23.865 -0.0109335
23.905 0.00172891
23.945 0.0697161
23.985 0.0803457
24.025 0.0299795
24.065 0.0783509
24.105 0.051846
24.145 0.0757736
24.185 0.0845476
24.225 0.062568
24.265 0.106409
24.305 0.0917171
24.345 0.0302697
24.385 0.0102121
24.425 0.0252081
24.465 0.0687921
24.505 -0.00411138
24.545 0.0372903
24.585 0.0515332
24.625 0.0554345
24.665 0.0806688
24.705 0.0449826
24.745 0.0496308
24.785 0.0775844
24.825 0.0306373
24.865 0.0475305
24.905 0.0680927
24.945 0.0536813
24.985 0.0463274
25.025 0.0859035
25.065 0.104457
25.105 0.17785
25.145 0.186082
25.185 0.205699
25.225 0.290307
25.265 0.316058
25.305 0.416427
25.345 0.354731
25.385 0.302416
25.425 0.231966
25.465 0.10912
25.505 0.0570262
25.545 0.055064
25.585 0.0411449
25.625 0.0519837
25.665 0.0563072
25.705 -0.00638463
25.745 0.052337
25.785 0.055475
25.825 0.0318288
25.865 0.0257485
25.905 0.00746217
25.945 0.014939
25.985 0.0500658
26.025 0.0466981
26.065 0.0393925
26.105 0.0429244
26.145 0.0375591
26.185 0.0530944
26.225 0.0446447
26.265 0.0818057
26.305 0.117126
26.345 0.175893
26.385 0.503478
26.425 0.780469
26.465 1.08255
26.505 0.693273
26.545 0.362668
26.585 0.147583
26.625 0.050826
26.665 0.0534988
26.705 0.0480447
26.745 0.000591151
26.785 0.0462264
26.825 0.0764172
26.865 0.00926623
26.905 0.041256
26.945 0.00104531
26.985 0.0397995
27.025 0.0364345
27.065 0.0850882
27.105 0.0571599
27.145 0.0323871
27.185 0.0300408
27.225 0.0235149
27.265 0.00881603
27.305 0.0243162
27.345 -0.0012741
27.385 0.00693306
27.425 0.0255776
27.465 0.0376353
27.505 0.0311972
27.545 -0.000224406
27.585 -0.00268969
27.625 0.0392364
27.665 0.0252365
27.705 0.0160644
27.745 0.0415484
27.785 0.0438969
27.825 0.106989
27.865 0.149125
27.905 0.287696
27.945 0.265217
27.985 0.23019
28.025 0.115024
28.065 0.0863447
28.105 0.0397801
28.145 0.00472835
28.185 0.0187736
28.225 0.0426975
28.265 0.00690287
28.305 0.0134872
28.345 0.0497543
28.385 0.00174721
28.425 0.00460043
28.465 -0.0283969
28.505 0.00121654
28.545 0.037278
28.585 -0.0194413
28.625 0.0220352
28.665 0.0131706
28.705 0.015602
28.745 0.0817599
28.785 0.0216631
28.825 0.0137247
28.865 0.0671567
28.905 0.0450603
28.945 0.0188148
28.985 0.00745143
29.025 0.0249463
29.065 -0.029586
29.105 -0.0094484
29.145 0.00608678
29.185 0.0147767
29.225 0.0284322
29.265 0.0675324
29.305 0.121065
29.345 0.106495
29.385 0.0885399
29.425 0.21375
29.465 0.541065
29.505 0.602603
29.545 0.732431
29.585 0.518522
29.625 0.338969
29.665 0.304587
29.705 0.139168
29.745 0.107711
29.785 0.076096
29.825 0.0613217
29.865 0.0613148
29.905 0.0503551
29.945 0.0235899
29.985 0.0459963
30.025 0.00477965
30.065 0.0413416
30.105 0.0394195
30.145 0.0409723
30.185 0.0379304
30.225 -0.00338035
30.265 0.0172778
30.305 0.0281733
30.345 0.0533302
30.385 0.038902
30.425 0.0718871
30.465 0.0587702
30.505 0.0148445
30.545 0.0401707
30.585 0.0358335
30.625 0.0124114
30.665 -0.00184147
30.705 0.0306821
30.745 0.0306819
30.785 0.00290787
30.825 0.0303034
30.865 0.0241046
30.905 0.00837978
30.945 0.0260917
30.985 0.0067243
31.025 0.0144761
31.065 -0.0282164
31.105 0.00687755
31.145 0.0279092
31.185 0.0224907
31.225 0.0427951
31.265 0.0239795
31.305 0.0246354
31.345 0.0155095
31.385 0.0143532
31.425 0.0272083
31.465 0.0107345
31.505 0.0210445
31.545 -0.000424171
31.585 0.0042122
31.625 0.0476379
31.665 0.0356806
31.705 0.045529
31.745 0.0435824
31.785 0.0680832
31.825 0.0619514
31.865 0.0665493
31.905 0.0258381
31.945 0.0203894
31.985 0.0137439
32.025 0.0193182
32.065 0.0243995
32.105 0.0324632
32.145 0.0267789
32.185 0.0167612
32.225 0.059978
32.265 0.0406021
32.305 0.0334068
32.345 0.0175337
32.385 0.0102008
32.425 0.0302573
32.465 -2.78731e-05
32.505 -0.00797091
32.545 -0.00875278
32.585 0.0192553
32.625 -0.00345542
32.665 -0.000465149
32.705 0.00911224
32.745 0.0165888
32.785 -0.0145596
32.825 -0.0256235
32.865 0.00976213
32.905 0.00413769
32.945 0.028088
32.985 0.00372077
33.025 0.0198772
33.065 -0.012446
33.105 0.0122988
33.145 0.019916
33.185 0.0122693
33.225 0.00475094
33.265 0.0305991
33.305 0.0295953
33.345 -0.00915939
33.385 0.0123
33.425 0.0112112
33.465 0.0215244
33.505 0.0356117
33.545 0.0369332
33.585 0.040123
33.625 0.0441715
33.665 0.0871806
33.705 0.129494
33.745 0.249435
33.785 0.370108
33.825 0.781396
33.865 1.20209
33.905 1.15772
33.945 0.92667
33.985 0.656749
34.025 0.474851
34.065 0.333049
34.105 0.184079
34.145 0.132359
34.185 0.0764358
34.225 0.0664599
34.265 0.0505823
34.305 0.0432839
34.345 0.0202705
34.385 0.0344819
34.425 -0.00110473
34.465 0.0144617
34.505 0.000707995
34.545 -0.00995835
34.585 -0.0192945
34.625 0.0162259
34.665 0.00079162
34.705 -0.00887409
34.745 0.0212934
34.785 0.013522
34.825 -0.0105851
34.865 0.0107936
34.905 0.0341299
34.945 0.0296566
34.985 0.0309293
35.025 0.0321761
35.065 0.0231131
35.105 0.0155582
35.145 -0.00473682
35.185 -0.00149375
35.225 -0.0158872
35.265 -0.00451487
35.305 -0.0114312
35.345 -0.0131569
35.385 -0.0152505
35.425 0.00482898
35.465 0.00188722
35.505 -0.0164534
35.545 -0.00739534
35.585 -0.0132726
35.625 -2.04233e-05
35.665 -0.00882675
35.705 0.00645032
35.745 0.00749032
35.785 0.0216317
35.825 0.051562
35.865 0.10534
35.905 0.113752
35.945 0.112294
35.985 0.13038
36.025 0.14464
36.065 0.132422
36.105 0.130404
36.145 0.122407
36.185 0.124338
36.225 0.0655265
36.265 0.0353549
36.305 0.024119
36.345 0.0113921
36.385 0.00565117
36.425 -0.0174542
36.465 -0.0164991
36.505 -0.01523
36.545 -0.0076984
36.585 0.012947
36.625 -0.00737099
36.665 0.00831681
36.705 -0.00289086
36.745 0.00235231
36.785 -0.0102242
36.825 -0.00616212
36.865 -0.000487773
36.905 -0.00648659
36.945 0.00927603
36.985 -0.00411482
37.025 -0.00957892
37.065 -0.0125133
37.105 0.00401563
37.145 0.00156171
37.185 0.000121735
37.225 -0.00724386
37.265 -0.00800456
37.305 -0.00422842
37.345 0.00857861
37.385 0.00077045
37.425 0.0118958
37.465 0.0005319
37.505 -0.00418004
37.545 0.00160476
37.585 -0.00563998
37.625 0.00963697
37.665 0.00634149
37.705 -0.0235144
37.745 0.0144988
37.785 0.0135694
37.825 0.00662882
37.865 0.0126445
37.905 0.028541
37.945 0.0523261
37.985 0.0611798
38.025 0.0983662
38.065 0.106197
38.105 0.154375
38.145 0.257307
38.185 0.392786
38.225 0.588508
38.265 0.839407
38.305 1.00754
38.345 1.06388
38.385 0.888977
38.425 0.693605
38.465 0.529693
38.505 0.318102
38.545 0.178565
38.585 0.137857
38.625 0.103519
38.665 0.0584585
38.705 0.0834657
38.745 0.0522278
38.785 0.0375637
38.825 0.0381588
38.865 0.0388759
38.905 0.0207711
38.945 0.0380169
38.985 0.0244109
39.025 -0.0183488
39.065 0.00227566
39.105 0.0195207
39.145 0.0141002
39.185 -0.00647542
39.225 -0.00111147
39.265 0.0131054
39.305 0.00451179
39.345 0.00729261
39.385 -0.0249622
39.425 0.0142555
39.465 0.0144521
39.505 0.0299684
39.545 0.0166771
39.585 0.0155441
39.625 0.00334471
39.665 -0.00142808
39.705 0.0082422
39.745 -0.00699402
39.785 0.0101889
39.825 -0.000605557
39.865 0.00884084
39.905 0.0185916
39.945 0.0443606
39.985 0.0680111
40.025 0.108359
40.065 0.132827
40.105 0.115371
40.145 0.108008
40.185 0.0812502
40.225 0.0400944
40.265 0.0553951
40.305 0.00628773
40.345 0.00910732
40.385 -0.00609053
40.425 0.0301016
40.465 0.00911025
40.505 -0.000473347
40.545 0.00957932
40.585 -0.00256289
40.625 0.0188684
40.665 -0.0102101
40.705 0.00265579
40.745 -0.00936043
40.785 0.000399986
40.825 -0.00403169
40.865 0.00548212
40.905 0.0162503
40.945 -0.0063678
40.985 0.000765584
41.025 0.00688628
41.065 0.000316396
41.105 0.0128043
41.145 0.0207373
41.185 0.00656671
41.225 0.00181284
41.265 0.0106979
41.305 0.014857
41.345 0.0167575
41.385 0.0207019
41.425 0.00426653
41.465 0.0209755
41.505 0.00796301
41.545 0.0426783
41.585 0.0129053
41.625 0.0252543
41.665 0.031154
41.705 -0.00135691
41.745 0.0107702
41.785 0.00987014
41.825 0.00231483
41.865 0.0240188
41.905 -0.00058542
41.945 0.0211259
41.985 0.0625882
42.025 0.146121
42.065 0.297287
42.105 0.520483
42.145 0.622558
42.185 0.644976
42.225 0.597248
42.265 0.375859
42.305 0.256779
42.345 0.141406
42.385 0.0421699
42.425 0.0469194
42.465 0.00610512
42.505 0.019116
42.545 -0.00587119
42.585 -0.00818056
42.625 -0.00644633
42.665 0.00612795
42.705 -0.00598307
42.745 0.0152758
42.785 0.0328761
42.825 0.0145017
42.865 0.0369056
42.905 0.0467363
42.945 0.0165355
42.985 0.0198218
43.025 0.0103328
43.065 0.00407359
43.105 -0.00272876
43.145 -0.00806892
43.185 -0.00787428
43.225 -0.0234055
43.265 0.0099598
43.305 0.0321412
43.345 0.0317387
43.385 0.0130232
43.425 0.0114465
43.465 -0.000553732
43.505 0.0037234
43.545 0.00904877
43.585 -0.0188199
43.625 0.00819583
43.665 0.0159029
43.705 0.015531
43.745 -0.00186209
43.785 0.00582003
43.825 0.0150068
43.865 0.00483792
43.905 0.0138502
43.945 0.0430823
43.985 0.0213747
44.025 0.0469987
44.065 0.102333
44.105 0.238876
44.145 0.577161
44.185 0.765939
44.225 0.764867
44.265 0.60156
44.305 0.341702
44.345 0.172829
44.385 0.0839542
44.425 0.0347035
44.465 0.0423866
44.505 0.0168535
44.545 0.0322776
44.585 0.0188446
44.625 -0.0013714
44.665 -0.0199778
44.705 0.0067462
44.745 0.0214319
44.785 -0.010583
44.825 0.00671388
44.865 -0.0120109
44.905 0.00785019
44.945 0.00904109
44.985 0.0061109
45.025 -0.0170865
45.065 0.0097176
45.105 -0.0222798
45.145 0.00639302
45.185 0.0171205
45.225 0.0408634
45.265 0.0603525
45.305 0.0144137
45.345 0.0222291
45.385 0.020041
45.425 0.00963447
45.465 -0.00107883
45.505 0.00482722
45.545 0.0056779
45.585 0.00634448
45.625 -0.00718782
45.665 -0.00501644
45.705 -0.000553222
45.745 -0.0104224
45.785 -0.0212829
45.825 0.0165855
45.865 0.0108176
45.905 0.0061462
45.945 -0.0109043
45.985 -0.0226605
46.025 0.0327015
46.065 0.00361587
46.105 0.000910411
46.145 0.00266422
46.185 0.0112454
46.225 0.0280438
46.265 0.0258318
46.305 0.00579457
46.345 -0.0137417
46.385 -0.0104787
46.425 0.0243282
46.465 0.0147489
46.505 0.00468229
46.545 0.0120608
46.585 0.00372125
46.625 -0.0144875
46.665 0.00802237
46.705 -0.00933166
46.745 -0.0123332
46.785 0.010842
46.825 0.00408275
46.865 -0.00570139
46.905 0.0150542
46.945 0.0174905
46.985 0.02035
47.025 0.0134551
47.065 0.0243415
47.105 0.0196686
47.145 0.0235547
47.185 0.0224337
47.225 0.0246047
47.265 0.0152207
47.305 -0.0163494
47.345 0.00397407
47.385 0.0454835
47.425 0.0462275
47.465 0.0567339
47.505 0.0296642
47.545 0.0221432
47.585 0.00286128
47.625 0.00244239
47.665 -0.006121
47.705 0.019673
47.745 0.000750692
47.785 -0.00574769
47.825 0.00724109
47.865 0.00890232
47.905 0.0137671
47.945 0.00915731
47.985 0.00424881
48.025 -0.0086513
48.065 -0.0172809
48.105 -0.000766175
48.145 0.00499767
48.185 -0.0146857
48.225 0.00134439
48.265 0.0211636
48.305 0.00617974
48.345 0.00411768
48.385 0.00854458
48.425 0.0181626
48.465 0.0251504
48.505 0.0433444
48.545 0.0678981
48.585 0.0799521
48.625 0.0986869
48.665 0.0742534
48.705 0.0307423
48.745 -0.00184925
48.785 0.0201651
48.825 0.0287971
48.865 0.0317858
48.905 0.0503396
48.945 0.0537498
48.985 0.0390714
49.025 0.0279847
49.065 0.0402443
49.105 0.0345588
49.145 0.103183
49.185 0.108436
49.225 0.132441
49.265 0.147351
49.305 0.0899948
49.345 0.0490536
49.385 0.0349769
49.425 0.00450988
49.465 0.0295907
49.505 0.0468288
49.545 0.0417062
49.585 0.0527148
49.625 0.0177861
49.665 0.02951
49.705 0.00820735
49.745 -0.00165431
49.785 0.00483702
49.825 -0.0139493
49.865 -0.0190839
49.905 0.00900264
49.945 -0.0104051
49.985 -0.00906767
50.025 -0.00309519
50.065 -0.0130117
50.105 -0.0154093
50.145 0.00512877
50.185 0.0102
50.225 0.00918246
50.265 0.0244577
50.305 0.0180599
50.345 0.00522116
50.385 0.0105285
50.425 -0.0091628
50.465 -0.0131762
50.505 -0.00350994
50.545 -0.0055681
50.585 -0.00847064
50.625 -0.00539788
50.665 -0.00168088
50.705 0.0123968
50.745 0.00492414
50.785 0.0196474
50.825 0.00861408
50.865 -0.0003484
50.905 8.19199e-05
50.945 -0.00788289
50.985 0.0156645
51.025 0.0077783
51.065 0.000608722
51.105 0.00080204
51.145 -0.00808984
51.185 0.00722336
51.225 0.0110088
51.265 0.0413436
51.305 0.0206086
51.345 0.0318524
51.385 0.0190356
51.425 0.0165644
51.465 -0.0144
51.505 0.00788104
51.545 -0.00854018
51.585 -0.009484
51.625 -0.0145782
51.665 -0.0110978
51.705 -0.00480671
51.745 -0.00236086
51.785 -0.0117996
51.825 0.000867247
51.865 -0.0136856
51.905 -0.0168212
51.945 -0.0171057
51.985 -0.00424481
52.025 -0.00776743
52.065 0.000108399
52.105 -0.0146652
52.145 -0.00975939
52.185 -0.00088315
52.225 -0.00510458
52.265 -0.005718
52.305 -0.0127734
52.345 -0.00704815
52.385 -0.0185297
52.425 -0.00527595
52.465 0.00518463
52.505 -0.00227843
52.545 0.00150303
52.585 1.69518e-05
52.625 -0.00516876
52.665 -0.00703184
52.705 -0.000211005
52.745 -0.00251677
52.785 0.0155177
52.825 0.0197369
52.865 0.0397053
52.905 0.0593303
52.945 0.0828196
52.985 0.0715472
53.025 0.0424232
53.065 0.0311768
53.105 0.00945562
53.145 0.000569223
53.185 -0.00801476
53.225 0.00150106
53.265 0.0114157
53.305 0.0302614
53.345 0.0442049
53.385 0.0463658
53.425 0.0693775
53.465 0.0433063
53.505 0.00913226
53.545 0.000959183
53.585 0.00287766
53.625 -0.0098232
53.665 0.00258926
53.705 -0.0169572
53.745 0.00217538
53.785 -0.00848731
53.825 -0.00762116
53.865 0.0159315
53.905 -0.0074424
53.945 0.00983656
53.985 -0.000366021
54.025 -0.00945817
54.065 0.00165937
54.105 -0.0168524
54.145 0.00168772
54.185 -0.00924706
54.225 0.0248986
54.265 0.014696
54.305 0.0117126
54.345 0.0179198
54.385 0.0114335
54.425 0.000333956
54.465 -0.00866475
54.505 -0.00602952
54.545 -0.00961411
54.585 0.00613264
54.625 -0.00410575
54.665 0.00367132
54.705 0.00815262
54.745 -0.0102438
54.785 -0.00584926
54.825 -0.00266012
54.865 0.0106865
54.905 0.00372237
54.945 -0.00791037
54.985 -0.0127464
55.025 0.0104425
55.065 0.000446447
55.105 -0.000575134
55.145 -0.0113432
55.185 -0.000695532
55.225 0.0122416
55.265 0.00657354
55.305 0.00255471
55.345 0.0200528
55.385 -0.000691203
55.425 0.0226561
55.465 -0.00199712
55.505 0.00652403
55.545 -0.0201491
55.585 0.0032882
55.625 0.0096749
55.665 0.0103271
55.705 0.0220599
55.745 0.00756127
55.785 0.0141076
55.825 -0.0106067
55.865 0.00196688
55.905 0.0118039
55.945 -0.00532109
55.985 0.00489389
56.025 -0.0109653
56.065 0.000933481
56.105 -0.00390889
56.145 2.9655e-05
56.185 0.00297861
56.225 0.00378247
56.265 -0.0136917
56.305 0.00449062
56.345 0.00328435
56.385 0.021305
56.425 -0.011075
56.465 -0.00857825
56.505 -0.011671
56.545 0.000735986
56.585 0.0057676
56.625 0.0086865
56.665 -0.00205084
56.705 -0.000526025
56.745 8.81627e-05
56.785 -0.000979942
56.825 -0.00530983
56.865 -0.00660257
56.905 0.00590337
56.945 -0.00441644
56.985 0.00512912
57.025 -0.000557257
57.065 0.00277522
57.105 -0.00937631
57.145 -0.0159243
57.185 -0.00156755
57.225 -0.00860147
57.265 0.0225518
57.305 -0.00938165
57.345 0.0157451
57.385 0.00299673
57.425 -0.00281468
57.465 -0.0167319
57.505 -0.00636943
57.545 -0.0199952
57.585 0.00934614
57.625 0.0113659
57.665 0.027251
57.705 0.0100302
57.745 0.0207904
57.785 0.0308623
57.825 0.0444309
57.865 0.105716
57.905 0.166344
57.945 0.212832
57.985 0.224769
58.025 0.270707
58.065 0.30785
58.105 0.303877
58.145 0.265309
58.185 0.252795
58.225 0.216586
58.265 0.151733
58.305 0.0920585
58.345 0.0441774
58.385 0.0308301
58.425 0.0144315
58.465 0.0157479
58.505 0.0269001
58.545 -0.00528918
58.585 0.0132917
58.625 -0.0123353
58.665 -0.00146125
58.705 -0.0124575
58.745 -0.00155579
58.785 0.00554012
58.825 -0.0057179
58.865 0.000464342
58.905 0.0201491
58.945 0.0168336
58.985 0.00569473
59.025 -0.007288
59.065 -0.00561924
59.105 0.0108622
59.145 0.00400988
59.185 -0.000321036
59.225 0.0174443
59.265 0.0127622
59.305 -0.00393464
59.345 -0.0172104
59.385 0.0207547
59.425 -0.00126636
59.465 0.00447801
59.505 0.00992629
59.545 0.0164519
59.585 0.00640607
59.625 0.0183342
59.665 0.00721168
59.705 0.0274256
59.745 0.0297651
59.785 0.0198329
59.825 0.0149838
59.865 0.0223558
59.905 0.00937111
59.945 0.0268884
59.985 0.0263584
60.025 0.00369845
60.065 0.0164167
60.105 0.0127764
60.145 -0.00659721
60.185 -0.0133708
60.225 0.0243725
60.265 0.0233246
60.305 -0.000638083
60.345 0.0184205
60.385 0.0010436
60.425 -0.00576823
60.465 0.00360265
60.505 0.0118224
60.545 0.0176984
60.585 0.033661
60.625 -0.0161976
60.665 -0.00471413
60.705 0.00575764
60.745 0.00454819
60.785 -0.00904775
60.825 0.00755162
60.865 0.0234017
60.905 -0.00527193
60.945 0.00458989
60.985 0.00293535
61.025 0.0132118
61.065 0.0121229
61.105 0.018194
61.145 0.0262955
61.185 0.0241653
61.225 0.0292337
61.265 0.0369742
61.305 0.0439554
61.345 0.093436
61.385 0.172808
61.425 0.229259
61.465 0.300035
61.505 0.411836
61.545 0.468674
61.585 0.546814
61.625 0.349428
61.665 0.185799
61.705 0.0943129
61.745 0.0389966
61.785 0.0400338
61.825 0.0315463
61.865 0.0441201
61.905 0.0427316
61.945 0.0475054
61.985 0.0582101
62.025 0.0674297
62.065 0.103382
62.105 0.0735974
62.145 0.0721722
62.185 0.0382808
62.225 0.0261179
62.265 0.000259927
62.305 0.00729753
62.345 0.0132297
62.385 -0.00810984
62.425 0.00849606
62.465 0.0163013
62.505 -0.00665332
62.545 0.0368015
62.585 0.0126392
62.625 0.0114756
62.665 0.0698536
62.705 0.0506069
62.745 0.0593838
62.785 0.0688267
62.825 0.0572755
62.865 0.0831518
62.905 0.0250932
62.945 0.0277999
62.985 0.0376916
63.025 0.0168299
63.065 0.0153953
63.105 0.0152992
63.145 0.0104083
63.185 0.0177373
63.225 0.0111113
63.265 0.0114489
63.305 0.007645
63.345 0.0111698
63.385 0.0288874
63.425 0.0244966
63.465 0.0190029
63.505 -0.0185447
63.545 0.00908084
63.585 0.0117293
63.625 0.00806749
63.665 0.00675134
63.705 0.0102832
63.745 0.0255696
63.785 0.0118868
63.825 0.016311
63.865 0.0111858
63.905 0.0287069
63.945 0.0106491
63.985 0.0144259
64.025 0.023424
64.065 0.000632368
64.105 0.00683006
64.145 0.0195277
64.185 -0.0157448
64.225 -0.0128983
64.265 -0.0049156
64.305 0.0266352
64.345 0.0121958
64.385 0.0161679
64.425 0.00772945
64.465 0.0217657
64.505 0.0108458
64.545 0.00628765
64.585 0.0166857
64.625 0.0101365
64.665 0.0141282
64.705 0.00884944
64.745 0.0145054
64.785 0.0181357
64.825 0.0426445
64.865 -0.00423055
64.905 0.0131954
64.945 0.00882484
64.985 -0.0081791
65.025 -0.00346153
65.065 -0.00672918
65.105 -0.00182241
65.145 0.00399606
65.185 -0.000584375
65.225 0.0269587
65.265 -0.00403674
65.305 0.00657218
65.345 -0.00136108
65.385 -0.0104098
65.425 -0.00398296
65.465 -0.0052391
65.505 0.00803645
65.545 -0.0143122
65.585 0.0274723
65.625 0.00116892
65.665 0.0183121
65.705 0.00599331
65.745 0.0196754
65.785 0.0372401
65.825 0.0391951
65.865 0.0575554
65.905 0.0502926
65.945 0.0583838
65.985 0.0308219
66.025 0.0301706
66.065 0.0298465
66.105 0.00601913
66.145 0.0116525
66.185 0.00247153
66.225 0.00748199
66.265 0.0171365
66.305 0.0157118
66.345 0.0220458
66.385 0.028728
66.425 0.0292882
66.465 0.0495072
66.505 0.0727086
66.545 0.108262
66.585 0.0962849
66.625 0.125518
66.665 0.14
66.705 0.180469
66.745 0.232021
66.785 0.279127
66.825 0.271595
66.865 0.213743
66.905 0.148208
66.945 0.0965376
66.985 0.0560859
67.025 0.0642356
67.065 0.055528
67.105 0.0757267
67.145 0.0744181
67.185 0.047566
67.225 0.0624703
67.265 0.0574491
67.305 0.0331367
67.345 0.0509923
67.385 0.0289618
67.425 0.0136907
67.465 0.0323961
67.505 0.0240782
67.545 0.0404235
67.585 0.0487909
67.625 0.0495059
67.665 0.0449749
67.705 0.0428322
67.745 0.0401914
67.785 0.0235862
67.825 0.0272036
67.865 0.0154282
67.905 0.00805047
67.945 0.0184779
67.985 -0.000157945
68.025 -0.00373029
68.065 -0.00736442
68.105 0.00786121
68.145 0.00151749
68.185 -0.00713158
68.225 0.00646947
68.265 -0.0111116
68.305 0.00916056
68.345 -0.00374187
68.385 -0.00225429
68.425 0.00399547
68.465 -0.0150483
68.505 0.000200937
68.545 0.00902337
68.585 0.000452749
68.625 -0.00713499
68.665 -0.0166327
68.705 -0.00941387
68.745 -0.01488
68.785 -0.0184871
68.825 0.00548347
68.865 0.00230897
68.905 0.00634698
68.945 0.00916423
68.985 0.00617815
69.025 0.0148319
69.065 0.0149144
69.105 0.0149867
69.145 -0.000629601
69.185 0.0230832
69.225 0.0015745
69.265 0.0215297
69.305 -0.00782857
69.345 0.00344813
69.385 -0.00390692
69.425 0.0123891
69.465 -0.0071188
69.505 0.00499737
69.545 -0.00907723
69.585 0.017381
69.625 0.00140747
69.665 -0.00889372
69.705 -0.00131136
69.745 0.00152023
69.785 -0.011776
69.825 0.00272713
69.865 0.00344102
69.905 0.0175122
69.945 0.0105731
69.985 0.0345731
70.025 0.0280491
70.065 0.0551615
70.105 0.0795607
70.145 0.105492
70.185 0.103715
70.225 0.0918133
70.265 0.0598783
70.305 0.0249352
70.345 0.012016
70.385 0.00676166
70.425 0.00197218
70.465 -0.0060831
70.505 -0.000639899
70.545 0.0110686
70.585 -0.00806547
70.625 0.00581307
70.665 0.00798164
70.705 -0.00173745
70.745 -0.0079215
70.785 -0.00362897
70.825 0.00246502
70.865 0.0113596
70.905 0.0185312
70.945 0.0205188
70.985 0.00198976
71.025 0.0067244
71.065 0.00872149
71.105 0.0295514
71.145 0.00784474
71.185 0.00557768
71.225 0.0133321
71.265 0.0250541
71.305 0.017591
71.345 0.0622112
71.385 0.11503
71.425 0.208751
71.465 0.344137
71.505 0.391073
71.545 0.4608
71.585 0.44365
71.625 0.448599
71.665 0.355834
71.705 0.247557
71.745 0.207548
71.785 0.0855219
71.825 0.0626079
71.865 0.0249013
71.905 0.00240456
71.945 0.00397584
71.985 0.00636407
72.025 0.00885701
72.065 -0.0105437
72.095 -0.0200481