File: data/xrd/xy/2019-06-19T14_53_56.517003+00_00_LBL_D5.xy
'Id: "" Comment: "Integrate frame perovskite_02_001.gfrmwith cursor Wedge Cursor #2" Operator: "UC Berkeley" Anode: "Co" Scantype: "TwoTheta" TimePerStep: "400"
14.125 -0.0306055
14.165 0.0409475
14.205 0.0257909
14.245 0.0545209
14.285 0.0235133
14.325 -0.00451192
14.365 0.00655169
14.405 0.0909155
14.445 0.0422982
14.485 0.0583438
14.525 -0.0119667
14.565 -0.00725369
14.605 0.0645885
14.645 0.0396477
14.685 0.0292945
14.725 0.0322322
14.765 0.0501336
14.805 0.046993
14.845 0.0536344
14.885 0.0302996
14.925 0.0509956
14.965 0.0455082
15.005 0.0690595
15.045 0.043813
15.085 0.0500483
15.125 0.0363183
15.165 0.056942
15.205 0.0371652
15.245 0.0363574
15.285 0.0520833
15.325 0.0692818
15.365 -0.00108661
15.405 0.0358702
15.445 0.0370626
15.485 0.0301314
15.525 0.0115767
15.565 0.0913897
15.605 0.0443231
15.645 0.06196
15.685 0.0740243
15.725 0.0559149
15.765 -0.0124239
15.805 0.0841428
15.845 -0.0295735
15.885 0.086796
15.925 0.027623
15.965 0.0791599
16.005 0.0372341
16.045 0.0817949
16.085 0.0245025
16.125 0.0114152
16.165 0.0424859
16.205 0.0267726
16.245 0.060493
16.285 0.0570254
16.325 0.0687905
16.365 0.0728723
16.405 0.0910518
16.445 0.0639307
16.485 0.0610956
16.525 0.0642001
16.565 0.0552709
16.605 0.0771119
16.645 0.00631393
16.685 0.0860114
16.725 0.0630127
16.765 0.0449964
16.805 0.0788324
16.845 0.0315814
16.885 0.0506711
16.925 0.048526
16.965 -0.00581695
17.005 0.0309883
17.045 0.068805
17.085 0.0561678
17.125 0.0525085
17.165 0.0551882
17.205 0.0378597
17.245 0.0218775
17.285 0.0470621
17.325 0.0646203
17.365 0.0544537
17.405 0.0238662
17.445 0.0274347
17.485 0.0344236
17.525 0.0677031
17.565 0.0739329
17.605 0.028392
17.645 0.00356561
17.685 0.0125336
17.725 0.0551936
17.765 0.0511738
17.805 0.0456194
17.845 0.0303785
17.885 0.0582913
17.925 0.0459107
17.965 0.0361736
18.005 0.0407544
18.045 0.0186926
18.085 0.0281295
18.125 0.0509783
18.165 0.0353897
18.205 0.0210197
18.245 0.0767668
18.285 0.100843
18.325 0.0667204
18.365 0.0806278
18.405 0.043197
18.445 0.0279383
18.485 0.0653086
18.525 0.0598013
18.565 0.035866
18.605 0.0778206
18.645 0.0198812
18.685 0.0241696
18.725 0.0998613
18.765 0.0154921
18.805 0.0116433
18.845 0.0118701
18.885 0.00453501
18.925 0.0663717
18.965 0.0274282
19.005 0.0463045
19.045 0.0296584
19.085 0.0224464
19.125 0.0444021
19.165 0.0254204
19.205 0.0433333
19.245 0.0766637
19.285 0.0177162
19.325 0.0563861
19.365 0.0374602
19.405 0.0282626
19.445 0.0119557
19.485 0.0509191
19.525 0.0411584
19.565 0.0305804
19.605 0.0409644
19.645 0.0621138
19.685 0.0270091
19.725 0.0296245
19.765 0.0631809
19.805 0.0312285
19.845 0.0881076
19.885 -0.00945599
19.925 0.0244108
19.965 0.0213755
20.005 -0.00307608
20.045 0.0459498
20.085 0.0146156
20.125 0.0949277
20.165 0.0493248
20.205 0.0334219
20.245 0.0195413
20.285 0.0758156
20.325 0.023465
20.365 0.0449167
20.405 0.0330292
20.445 0.042505
20.485 0.0265713
20.525 0.018209
20.565 0.00606564
20.605 0.0242677
20.645 0.0314512
20.685 0.0347745
20.725 0.0285668
20.765 0.0125197
20.805 0.0413762
20.845 0.0239307
20.885 0.0288175
20.925 0.0344847
20.965 0.0317104
21.005 0.0477423
21.045 0.0276229
21.085 0.0062198
21.125 0.0527197
21.165 -0.000882895
21.205 0.0320423
21.245 0.0264156
21.285 0.057092
21.325 0.038094
21.365 0.0191117
21.405 0.0636185
21.445 0.0510165
21.485 0.0148784
21.525 0.0238547
21.565 0.020138
21.605 0.0484466
21.645 0.0328644
21.685 0.0340351
21.725 0.0398087
21.765 0.0431891
21.805 0.0281868
21.845 0.0377472
21.885 -0.011142
21.925 0.0271322
21.965 0.013744
22.005 0.00808057
22.045 0.0301843
22.085 -0.00444571
22.125 0.0243919
22.165 0.0324209
22.205 0.000585032
22.245 0.0118554
22.285 0.0102394
22.325 0.0429335
22.365 -0.024413
22.405 0.0158895
22.445 0.00515914
22.485 0.0535548
22.525 0.0323942
22.565 0.0258303
22.605 0.0439998
22.645 0.0194681
22.685 0.0523772
22.725 0.0382579
22.765 0.0606757
22.805 0.061615
22.845 0.0695668
22.885 0.0455911
22.925 0.0724494
22.965 0.0607939
23.005 0.044462
23.045 0.036537
23.085 0.0368837
23.125 0.0239943
23.165 0.0123968
23.205 0.0127842
23.245 0.0126418
23.285 0.0407275
23.325 0.0588303
23.365 0.012997
23.405 0.0180728
23.445 0.0501151
23.485 0.0380285
23.525 0.0386
23.565 0.0223282
23.605 0.0237561
23.645 0.0361775
23.685 0.0343235
23.725 0.0369616
23.765 0.0168232
23.805 0.00858321
23.845 0.00724778
23.885 0.0230138
23.925 0.0073002
23.965 0.0588297
24.005 0.0533064
24.045 0.0570475
24.085 0.0196922
24.125 0.0476196
24.165 0.0444567
24.205 0.0176648
24.245 0.0326095
24.285 0.0491447
24.325 0.0187565
24.365 0.0307216
24.405 0.0522156
24.445 0.0285664
24.485 0.0357342
24.525 0.0557205
24.565 0.0314576
24.605 0.043311
24.645 0.0513013
24.685 0.0250978
24.725 0.0163569
24.765 -0.00247063
24.805 0.000612596
24.845 0.0268805
24.885 0.0644382
24.925 0.0584991
24.965 0.0131174
25.005 0.00231725
25.045 0.0355852
25.085 0.0429335
25.125 0.0564995
25.165 0.0652259
25.205 0.0602491
25.245 0.0344164
25.285 0.0346502
25.325 0.00403912
25.365 0.00190896
25.405 0.0457317
25.445 0.0616719
25.485 0.0537495
25.525 0.0848049
25.565 0.137519
25.605 0.223513
25.645 0.365027
25.685 0.392239
25.725 0.380686
25.765 0.329245
25.805 0.233513
25.845 0.1672
25.885 0.0816056
25.925 0.0863443
25.965 0.0363212
26.005 0.0120188
26.045 0.0471732
26.085 0.0204853
26.125 0.0297212
26.165 0.0522318
26.205 0.0053641
26.245 0.0285673
26.285 0.00581873
26.325 0.0114379
26.365 0.044017
26.405 0.0510504
26.445 0.0357706
26.485 0.0110543
26.525 0.0271549
26.565 0.0261983
26.605 0.0262735
26.645 0.00509624
26.685 0.0260938
26.725 0.0618088
26.765 0.0283982
26.805 0.0346701
26.845 0.038624
26.885 0.0345093
26.925 -0.0134029
26.965 0.00564118
27.005 0.071907
27.045 0.00690131
27.085 0.0116873
27.125 0.0266036
27.165 0.0284726
27.205 0.0509801
27.245 0.025787
27.285 0.0484662
27.325 0.0581049
27.365 0.0311847
27.405 0.0248453
27.445 0.027783
27.485 0.0338037
27.525 0.0163629
27.565 -0.00307899
27.605 0.00964183
27.645 0.0271885
27.685 0.00823196
27.725 0.0273011
27.765 0.0167734
27.805 0.0351594
27.845 0.0308473
27.885 0.0323159
27.925 0.0396871
27.965 0.0197924
28.005 0.0182675
28.045 0.0335611
28.085 0.0568724
28.125 0.0430073
28.165 0.0318906
28.205 0.0539393
28.245 0.0374087
28.285 0.0931233
28.325 0.0951709
28.365 0.0833231
28.405 0.0886933
28.445 0.0805973
28.485 0.102029
28.525 0.112753
28.565 0.111761
28.605 0.104257
28.645 0.0830818
28.685 0.110122
28.725 0.092849
28.765 0.126999
28.805 0.171276
28.845 0.265313
28.885 0.358312
28.925 0.438613
28.965 0.528139
29.005 0.433342
29.045 0.372896
29.085 0.245526
29.125 0.153247
29.165 0.105321
29.205 0.122493
29.245 0.166175
29.285 0.225163
29.325 0.345227
29.365 0.493784
29.405 0.656657
29.445 0.725722
29.485 0.800944
29.525 0.724309
29.565 0.528655
29.605 0.441463
29.645 0.284348
29.685 0.179453
29.725 0.0969246
29.765 0.0793651
29.805 0.0837364
29.845 0.0454384
29.885 0.035552
29.925 0.0130858
29.965 0.0541634
30.005 0.0223541
30.045 0.0109067
30.085 0.0409574
30.125 0.0438347
30.165 0.0188592
30.205 0.0151937
30.245 0.023799
30.285 0.0268092
30.325 0.0192099
30.365 0.0266852
30.405 -0.00119633
30.445 0.0162912
30.485 0.0345875
30.525 0.0222972
30.565 0.0167062
30.605 0.0107934
30.645 0.0368814
30.685 0.0210109
30.725 0.0365003
30.765 0.0300953
30.805 0.0289305
30.845 0.00594193
30.885 0.0214731
30.925 0.0554125
30.965 0.0344984
31.005 0.0460105
31.045 0.01748
31.085 0.0335492
31.125 0.0480667
31.165 0.057868
31.205 0.0807103
31.245 0.064419
31.285 0.0726765
31.325 0.0511701
31.365 0.0532756
31.405 0.0233276
31.445 0.0274402
31.485 0.0417629
31.525 0.0278489
31.565 0.0491333
31.605 -0.00123048
31.645 0.0275521
31.685 0.0104064
31.725 -0.0122963
31.765 0.0224629
31.805 0.0154137
31.845 -0.00152553
31.885 0.0131572
31.925 0.0165307
31.965 0.0144399
32.005 0.021637
32.045 0.0212937
32.085 0.00733134
32.125 0.00121527
32.165 0.00809528
32.205 0.0355311
32.245 0.0348685
32.285 -0.0137698
32.325 -0.00390466
32.365 0.0118917
32.405 0.0229031
32.445 0.0530755
32.485 0.000635408
32.525 0.0163717
32.565 0.010003
32.605 0.00924667
32.645 -0.000347388
32.685 0.0298587
32.725 0.0325931
32.765 0.0420799
32.805 0.0349659
32.845 0.0238881
32.885 0.0311274
32.925 0.0293773
32.965 0.0464311
33.005 0.0312726
33.045 0.00704448
33.085 0.0277744
33.125 0.0504883
33.165 0.0377805
33.205 0.0583307
33.245 0.0553391
33.285 0.0805979
33.325 0.121383
33.365 0.160774
33.405 0.166541
33.445 0.143683
33.485 0.125578
33.525 0.128552
33.565 0.0823929
33.605 0.0726253
33.645 0.0537203
33.685 0.0300773
33.725 0.0312251
33.765 0.0242231
33.805 0.0084694
33.845 0.014432
33.885 0.0145593
33.925 0.0164571
33.965 0.0106873
34.005 0.0186926
34.045 0.0339604
34.085 0.0190622
34.125 -0.00357414
34.165 0.0225397
34.205 0.0274976
34.245 0.0391058
34.285 0.046041
34.325 0.0692639
34.365 0.12404
34.405 0.124507
34.445 0.243814
34.485 0.348254
34.525 0.567652
34.565 0.780679
34.605 1.02424
34.645 1.14597
34.685 1.09783
34.725 0.917993
34.765 0.658456
34.805 0.442731
34.845 0.278099
34.885 0.175168
34.925 0.128996
34.965 0.0870873
35.005 0.0935445
35.045 0.0845873
35.085 0.103275
35.125 0.128575
35.165 0.196155
35.205 0.189643
35.245 0.221111
35.285 0.195194
35.325 0.16494
35.365 0.127273
35.405 0.0999319
35.445 0.0715878
35.485 0.0431046
35.525 0.033165
35.565 0.0282228
35.605 0.0181696
35.645 0.0101637
35.685 0.00323558
35.725 0.026106
35.765 0.0140778
35.805 -0.0183383
35.845 0.0288565
35.885 -0.0163427
35.925 0.00043914
35.965 0.00742896
36.005 -0.0123428
36.045 -0.00524758
36.085 0.0110672
36.125 -0.00170902
36.165 -0.0130573
36.205 -0.0127983
36.245 -0.00599942
36.285 -0.00467157
36.325 0.00264181
36.365 0.0111294
36.405 0.0183617
36.445 0.0142745
36.485 0.0118159
36.525 0.00019664
36.565 0.0202493
36.605 0.00957173
36.645 0.0224724
36.685 0.0155087
36.725 0.0166996
36.765 0.0377869
36.805 0.0413322
36.845 0.0780365
36.885 0.0982575
36.925 0.122643
36.965 0.184417
37.005 0.319053
37.045 0.424499
37.085 0.611303
37.125 0.825369
37.165 1.05851
37.205 1.08305
37.245 1.03886
37.285 0.861922
37.325 0.651153
37.365 0.447763
37.405 0.337841
37.445 0.218389
37.485 0.17193
37.525 0.149461
37.565 0.130182
37.605 0.120836
37.645 0.128666
37.685 0.0815347
37.725 0.0781142
37.765 0.0672452
37.805 0.0712021
37.845 0.0600025
37.885 0.0319218
37.925 0.0272503
37.965 0.0436001
38.005 0.0552784
38.045 0.0590591
38.085 0.0698236
38.125 0.0667174
38.165 0.0848497
38.205 0.0411371
38.245 0.0444961
38.285 0.0365627
38.325 0.0404195
38.365 0.0556454
38.405 0.0296537
38.445 0.0327845
38.485 0.0422507
38.525 0.0432203
38.565 0.0511607
38.605 0.022756
38.645 0.0325152
38.685 -0.00166159
38.725 0.00619601
38.765 -0.00583311
38.805 -0.0038209
38.845 -0.000947585
38.885 -0.0117146
38.925 -0.00575389
38.965 -0.000637203
39.005 -0.0220225
39.045 -0.00932816
39.085 -0.0103188
39.125 -0.00207964
39.165 -0.0043359
39.205 0.00937885
39.245 -0.00217504
39.285 -0.0151401
39.325 -0.00206326
39.365 -0.0179426
39.405 0.00644123
39.445 2.8436e-05
39.485 0.0205933
39.525 -0.0116262
39.565 -0.00913014
39.605 -0.00252556
39.645 0.00619658
39.685 0.00222784
39.725 -0.00861886
39.765 0.0104798
39.805 0.0212042
39.845 0.0108277
39.885 0.00355701
39.925 0.00762585
39.965 0.0276188
40.005 0.0193388
40.045 0.034086
40.085 0.047192
40.125 0.0506676
40.165 0.067567
40.205 0.057105
40.245 0.07218
40.285 0.0521865
40.325 0.0552492
40.365 0.0363873
40.405 0.0266572
40.445 0.022566
40.485 0.0229626
40.525 0.0127723
40.565 0.0141295
40.605 -0.00191072
40.645 -0.000457587
40.685 0.00347487
40.725 0.00673135
40.765 0.00663193
40.805 0.00659306
40.845 0.0210381
40.885 0.000807761
40.925 0.0168776
40.965 -0.00081493
41.005 0.0112325
41.045 0.0341462
41.085 0.0541653
41.125 0.121265
41.165 0.159653
41.205 0.20878
41.245 0.270991
41.285 0.229205
41.325 0.197325
41.365 0.148851
41.405 0.118185
41.445 0.0771959
41.485 0.0871453
41.525 0.0611112
41.565 0.0537554
41.605 0.0311006
41.645 0.0341605
41.685 0.0183067
41.725 0.0193566
41.765 0.0228864
41.805 0.0110578
41.845 0.0260316
41.885 0.0203383
41.925 0.0310132
41.965 0.00621301
42.005 0.025938
42.045 0.00573152
42.085 -0.00317001
42.125 0.000246333
42.165 0.0279039
42.205 -0.00140284
42.245 0.0118974
42.285 0.00663286
42.325 0.00585564
42.365 0.00874893
42.405 0.00868506
42.445 0.0066612
42.485 0.0154422
42.525 0.0218764
42.565 0.0130574
42.605 0.0146688
42.645 0.0110265
42.685 -0.000302874
42.725 0.0139506
42.765 0.0134724
42.805 0.00992877
42.845 0.00407645
42.885 0.0275401
42.925 0.00480035
42.965 0.00824279
43.005 0.000711269
43.045 0.00621901
43.085 0.0236742
43.125 0.0294325
43.165 0.0275659
43.205 0.0145173
43.245 0.00958269
43.285 0.0210544
43.325 0.0277613
43.365 0.0212549
43.405 -0.0021833
43.445 0.00672465
43.485 0.00143706
43.525 0.00781296
43.565 0.0365683
43.605 0.0192873
43.645 0.0429704
43.685 0.0262836
43.725 0.029048
43.765 0.0373119
43.805 0.0152621
43.845 0.0490702
43.885 0.0597756
43.925 0.0933021
43.965 0.142363
44.005 0.196374
44.045 0.22416
44.085 0.272156
44.125 0.271352
44.165 0.222843
44.205 0.192285
44.245 0.160906
44.285 0.0945092
44.325 0.0863099
44.365 0.0348637
44.405 0.0283304
44.445 0.0215842
44.485 0.0257575
44.525 0.0129685
44.565 0.0133824
44.605 0.00648891
44.645 -0.00235364
44.685 0.00680657
44.725 0.0183664
44.765 -0.0102006
44.805 0.0141883
44.845 -0.00787516
44.885 0.00731826
44.925 0.0135376
44.965 0.00013005
45.005 -0.000811249
45.045 -0.000673942
45.085 -0.00222342
45.125 0.0137482
45.165 0.0040654
45.205 -0.000289809
45.245 0.00917963
45.285 0.00583593
45.325 -0.0186727
45.365 -0.00061441
45.405 0.00935003
45.445 0.0261435
45.485 0.0133809
45.525 0.0148958
45.565 0.00864204
45.605 0.0315613
45.645 0.0292356
45.685 0.0321319
45.725 0.0810858
45.765 0.0785097
45.805 0.105669
45.845 0.118389
45.885 0.132724
45.925 0.164468
45.965 0.170143
46.005 0.149468
46.045 0.197151
46.085 0.140103
46.125 0.128687
46.165 0.114183
46.205 0.0983152
46.245 0.0919169
46.285 0.0881676
46.325 0.113821
46.365 0.0912021
46.405 0.0983012
46.445 0.125279
46.485 0.142431
46.525 0.207507
46.565 0.254792
46.605 0.329654
46.645 0.402643
46.685 0.427829
46.725 0.454555
46.765 0.433667
46.805 0.39359
46.845 0.323889
46.885 0.253226
46.925 0.208332
46.965 0.193408
47.005 0.136678
47.045 0.117633
47.085 0.115677
47.125 0.0857969
47.165 0.0885715
47.205 0.0738336
47.245 0.0682224
47.285 0.0779605
47.325 0.0557632
47.365 0.0612913
47.405 0.0802357
47.445 0.107895
47.485 0.166471
47.525 0.256682
47.565 0.324451
47.605 0.460749
47.645 0.518778
47.685 0.545796
47.725 0.499258
47.765 0.434587
47.805 0.329518
47.845 0.264012
47.885 0.177618
47.925 0.129807
47.965 0.0954388
48.005 0.0839855
48.045 0.0969257
48.085 0.114018
48.125 0.149334
48.165 0.167142
48.205 0.203977
48.245 0.21488
48.285 0.212626
48.325 0.211832
48.365 0.19349
48.405 0.171698
48.445 0.158914
48.485 0.130657
48.525 0.169055
48.565 0.191327
48.605 0.228194
48.645 0.265092
48.685 0.266822
48.725 0.259071
48.765 0.264157
48.805 0.228745
48.845 0.169765
48.885 0.132893
48.925 0.10227
48.965 0.0847683
49.005 0.0630212
49.045 0.0425666
49.085 0.019664
49.125 0.0169743
49.165 0.00926491
49.205 0.0233153
49.245 0.00548816
49.285 0.0181548
49.325 0.0161024
49.365 -0.00393899
49.405 0.0165605
49.445 -0.00251243
49.485 0.0149312
49.525 0.0165833
49.565 0.0126024
49.605 0.0137251
49.645 0.0243391
49.685 0.0290724
49.725 0.0152491
49.765 0.0192245
49.805 0.0274418
49.845 0.0238538
49.885 0.017601
49.925 0.0185157
49.965 0.0273128
50.005 0.00807067
50.045 0.00557291
50.085 0.0111981
50.125 -0.0085435
50.165 0.00355535
50.205 -0.00296626
50.245 0.00187092
50.285 -0.00153777
50.325 -0.0108255
50.365 0.0119384
50.405 0.00400337
50.445 0.0231189
50.485 0.0219272
50.525 0.0225082
50.565 0.0272952
50.605 0.0270387
50.645 0.017503
50.685 0.00522973
50.725 0.00254633
50.765 0.0094458
50.805 -0.0034079
50.845 -0.00519618
50.885 0.00298454
50.925 0.00638442
50.965 -0.00785242
51.005 0.00460471
51.045 -0.00283007
51.085 -0.010596
51.125 -0.00439346
51.165 0.0103535
51.205 -0.00587376
51.245 -0.00893203
51.285 -0.0166769
51.325 0.0146432
51.365 -0.0134187
51.405 -0.00964562
51.445 -0.00297972
51.485 -0.0117133
51.525 0.00514133
51.565 -0.0154637
51.605 0.00629761
51.645 -0.0118985
51.685 -0.000536009
51.725 -0.0116482
51.765 -0.00657835
51.805 -0.00558776
51.845 -0.00224879
51.885 0.00373963
51.925 0.00374402
51.965 -0.00595538
52.005 0.0066218
52.045 -0.0115274
52.085 0.00590336
52.125 0.00513625
52.165 -0.00505602
52.205 0.00373162
52.245 0.0151759
52.285 -0.00351345
52.325 0.0281973
52.365 0.0356634
52.405 0.0394991
52.445 0.050349
52.485 0.125562
52.525 0.16515
52.565 0.255352
52.605 0.444237
52.645 0.61193
52.685 0.696411
52.725 0.756262
52.765 0.734609
52.805 0.623794
52.845 0.533435
52.885 0.405028
52.925 0.281803
52.965 0.185436
53.005 0.113163
53.045 0.083382
53.085 0.0407975
53.125 0.0510415
53.165 0.0433306
53.205 0.027674
53.245 0.0455124
53.285 0.019235
53.325 0.0550366
53.365 0.0523307
53.405 0.0627688
53.445 0.0649279
53.485 0.0668556
53.525 0.0699669
53.565 0.05712
53.605 0.0618272
53.645 0.0502251
53.685 0.048264
53.725 0.0327125
53.765 0.0136089
53.805 0.021108
53.845 0.00286522
53.885 0.0169001
53.925 0.0189644
53.965 0.0189028
54.005 0.0399262
54.045 0.0368588
54.085 0.0396299
54.125 0.0512323
54.165 0.063991
54.205 0.0797342
54.245 0.0851832
54.285 0.120095
54.325 0.151392
54.365 0.187636
54.405 0.326431
54.445 0.474214
54.485 0.65017
54.525 0.801428
54.565 0.878523
54.605 0.896706
54.645 0.855701
54.685 0.75444
54.725 0.632059
54.765 0.46049
54.805 0.360905
54.845 0.246087
54.885 0.163394
54.925 0.12494
54.965 0.077599
55.005 0.0603886
55.045 0.038018
55.085 0.0398736
55.125 0.0196157
55.165 0.0229658
55.205 0.0100568
55.245 0.00797781
55.285 0.00666595
55.325 -0.0076154
55.365 0.00349921
55.405 -0.0048963
55.445 -0.0125217
55.485 -0.000467662
55.525 -0.00301936
55.565 0.0082495
55.605 0.012609
55.645 0.0117987
55.685 0.0159704
55.725 0.0296833
55.765 0.0315528
55.805 0.0101451
55.845 0.028069
55.885 0.0305949
55.925 0.0598183
55.965 0.0444834
56.005 0.0347055
56.045 0.0681967
56.085 0.0791759
56.125 0.0530591
56.165 0.0465568
56.205 0.0679726
56.245 0.0655099
56.285 0.0634658
56.325 0.0804859
56.365 0.0482251
56.405 0.0510548
56.445 0.0540365
56.485 0.0381803
56.525 0.0501517
56.565 0.0603834
56.605 0.0526288
56.645 0.0411038
56.685 0.0376951
56.725 0.0308026
56.765 0.0214151
56.805 0.0228221
56.845 0.0244586
56.885 0.0195407
56.925 0.0164814
56.965 0.0158394
57.005 0.0108298
57.045 0.00655142
57.085 0.0124876
57.125 -0.000324941
57.165 0.0033103
57.205 -0.0167073
57.245 -0.00804778
57.285 0.0182691
57.325 0.00850302
57.365 0.00576611
57.405 0.00395711
57.445 -0.00784745
57.485 -0.0136673
57.525 -0.00130421
57.565 -0.0063451
57.605 -0.0130585
57.645 0.00389387
57.685 -0.0112547
57.725 0.0185087
57.765 0.00807646
57.805 -0.00870581
57.845 0.00190409
57.885 0.00213136
57.925 -0.00650839
57.965 0.000400378
58.005 0.0123785
58.045 0.0188484
58.085 0.0261492
58.125 0.0348724
58.165 0.0318032
58.205 0.0459358
58.245 0.0288597
58.285 0.0229073
58.325 0.0248278
58.365 0.0162656
58.405 0.0237003
58.445 0.000289393
58.485 -0.0180545
58.525 0.00745161
58.565 -0.0192112
58.605 0.00455494
58.645 0.0122387
58.685 0.00401614
58.725 0.0165321
58.765 0.00745134
58.805 0.0109846
58.845 0.00147317
58.885 0.0116628
58.925 0.0210252
58.965 0.035023
59.005 0.041588
59.045 0.0113485
59.085 0.0400887
59.125 0.0559489
59.165 0.0769611
59.205 0.0929096
59.245 0.108032
59.285 0.117467
59.325 0.110119
59.365 0.105354
59.405 0.113128
59.445 0.104143
59.485 0.0725642
59.525 0.0665012
59.565 0.0285736
59.605 0.0476084
59.645 0.0558705
59.685 0.0429248
59.725 0.0421031
59.765 0.0621221
59.805 0.0560117
59.845 0.0590687
59.885 0.0673081
59.925 0.0712903
59.965 0.0609791
60.005 0.050433
60.045 0.0516222
60.085 0.0490401
60.125 0.0316451
60.165 0.0205327
60.205 0.031331
60.245 0.0313967
60.285 0.0142744
60.325 0.00126211
60.365 0.0145569
60.405 0.0388575
60.445 0.0224962
60.485 0.0274534
60.525 0.0249736
60.565 0.0351403
60.605 0.0195314
60.645 0.0291883
60.685 0.036369
60.725 0.0291874
60.765 0.0274669
60.805 0.0212973
60.845 0.0293779
60.885 0.0270653
60.925 0.0299944
60.965 0.0521347
61.005 0.0427526
61.045 0.0912926
61.085 0.0796769
61.125 0.101437
61.165 0.0847779
61.205 0.0797075
61.245 0.0835761
61.285 0.0791314
61.325 0.0556316
61.365 0.047504
61.405 0.0372678
61.445 0.0508633
61.485 0.0298401
61.525 0.0456082
61.565 0.00862258
61.605 0.011454
61.645 0.0210315
61.685 0.00505484
61.725 0.000107919
61.765 0.0125577
61.805 -0.0054271
61.845 -0.00616646
61.885 0.0198693
61.925 -0.00262205
61.965 0.00873533
62.005 0.000578886
62.045 -0.00564045
62.085 0.00411905
62.125 0.00083644
62.165 0.0108726
62.205 0.00214994
62.245 -0.00222578
62.285 -0.00172448
62.325 -0.0122428
62.365 -0.00283315
62.405 -0.006069
62.445 -0.016686
62.485 -0.00422144
62.525 -0.00183073
62.565 -0.00149575
62.605 0.00679186
62.645 -0.00548815
62.685 -0.00733052
62.725 -0.00581352
62.765 0.0134534
62.805 -0.0089184
62.845 -0.00591012
62.885 -0.00165825
62.925 -0.0167775
62.965 0.0286339
63.005 0.0180482
63.045 -0.009291
63.085 0.00253958
63.125 0.0153862
63.165 -0.00547541
63.205 0.00795744
63.245 0.00479168
63.285 0.0141272
63.325 0.0107665
63.365 0.000870433
63.405 -0.000990769
63.445 0.0104983
63.485 0.00314422
63.525 0.00511604
63.565 0.018007
63.605 0.0107369
63.645 0.00547848
63.685 0.0322581
63.725 -0.00575971
63.765 0.0285989
63.805 0.0144707
63.845 0.00917977
63.885 0.00371415
63.925 -0.00149678
63.965 0.0315435
64.005 0.0265215
64.045 0.0129869
64.085 0.0288151
64.125 0.00736591
64.165 0.0170816
64.205 0.037511
64.245 0.0147263
64.285 0.021168
64.325 0.0233538
64.365 0.00637663
64.405 -0.000799199
64.445 0.00128408
64.485 0.0129548
64.525 0.0118194
64.565 -0.00280119
64.605 0.0194813
64.645 0.00818154
64.685 0.0358907
64.725 0.0545738
64.765 0.0345306
64.805 0.0860555
64.845 0.110423
64.885 0.155692
64.925 0.169655
64.965 0.180406
65.005 0.226825
65.045 0.218058
65.085 0.206352
65.125 0.18707
65.165 0.17563
65.205 0.171787
65.245 0.121181
65.285 0.0835259
65.325 0.0549647
65.365 0.0699373
65.405 0.0345903
65.445 0.0287977
65.485 0.019207
65.525 0.0255994
65.565 0.0130887
65.605 0.00587005
65.645 0.014713
65.685 0.00763622
65.725 0.0159394
65.765 0.00133875
65.805 -0.0132258
65.845 0.0107885
65.885 0.0151254
65.925 0.0151922
65.965 0.019593
66.005 0.0256627
66.045 0.00803466
66.085 0.0221337
66.125 0.0180324
66.165 0.0257044
66.205 0.0178624
66.245 0.022088
66.285 0.0235145
66.325 0.0299407
66.365 -0.00541127
66.405 0.00957153
66.445 0.000125294
66.485 0.0170319
66.525 -0.00158711
66.565 -0.00234437
66.605 0.00607141
66.645 -0.00154821
66.685 0.00356414
66.725 0.00397978
66.765 -0.00469355
66.805 0.00603397
66.845 0.0146624
66.885 -0.0180238
66.925 0.0105882
66.965 -0.00801518
67.005 0.00681129
67.045 -0.00836923
67.085 -0.000120152
67.125 -0.0105012
67.165 0.000946053
67.205 -0.00561896
67.245 -0.0138258
67.285 -0.0025816
67.325 0.00137137
67.365 -0.00370168
67.405 -0.00614681
67.445 -0.0063188
67.485 -0.0040629
67.525 0.00673161
67.565 -0.00116786
67.605 -0.0170579
67.62 -0.0188773