File: data/xrd/xy/2019-05-23TO2_12_25.720560+00_00_LBL_A1.xy
'Id: "" Comment: "Integrate frame 06062019_neo_Pentyl_01_002.gfrmwith cursor Wedge Cursor #1" Operator: "UC Berkeley" Anode: "Co" Scantype: "TwoTheta" TimePerStep: "600"
14.35 -0.024906
14.385 -0.0245998
14.42 0.0303738
14.455 -0.013007
14.49 -0.00753958
14.525 -0.0245438
14.56 0.0040207
14.595 0.0394942
14.63 0.0357079
14.665 0.0212145
14.7 0.00699382
14.735 0.0354513
14.77 -0.0120809
14.805 -0.00794976
14.84 0.0101313
14.875 0.0250417
14.91 0.0400633
14.945 -0.00391023
14.98 -0.000102196
15.015 0.037173
15.05 0.0590549
15.085 0.00589968
15.12 0.0479823
15.155 0.0122626
15.19 0.0513477
15.225 0.0242461
15.26 0.0296719
15.295 0.0481879
15.33 0.0580761
15.365 0.0199848
15.4 0.047266
15.435 0.0391255
15.47 0.0365178
15.505 0.0284583
15.54 0.0322009
15.575 0.0619921
15.61 0.0466237
15.645 0.0536868
15.68 0.0238412
15.715 0.0657963
15.75 0.0376363
15.785 0.0179337
15.82 0.0482903
15.855 0.00237844
15.89 0.000735893
15.925 -0.0175778
15.96 0.033063
15.995 0.0247916
16.03 0.037309
16.065 0.03442
16.1 0.0435899
16.135 0.0167032
16.17 0.0407101
16.205 0.0573665
16.24 0.0595149
16.275 0.0357227
16.31 0.0469211
16.345 0.078925
16.38 0.0942337
16.415 0.0854731
16.45 0.064891
16.485 0.0711661
16.52 0.124261
16.555 0.100892
16.59 0.0546628
16.625 0.0697748
16.66 0.0750852
16.695 0.0875046
16.73 0.0884082
16.765 0.0850458
16.8 0.0708395
16.835 0.122269
16.87 0.104459
16.905 0.174136
16.94 0.206699
16.975 0.205069
17.01 0.243547
17.045 0.256654
17.08 0.223287
17.115 0.178275
17.15 0.108921
17.185 0.0604506
17.22 0.05188
17.255 0.0164537
17.29 0.0132581
17.325 0.014289
17.36 0.0428495
17.395 0.0566319
17.43 0.0121624
17.465 0.0209854
17.5 0.0650085
17.535 0.00274129
17.57 0.0348359
17.605 0.0460541
17.64 0.0171605
17.675 0.0788831
17.71 0.0510546
17.745 0.0662476
17.78 0.0307531
17.815 0.0723929
17.85 0.0427447
17.885 0.0664311
17.92 0.0346054
17.955 0.0272668
17.99 0.0245583
18.025 0.0411933
18.06 0.0310756
18.095 0.0326485
18.13 0.0133811
18.165 0.030003
18.2 0.0324042
18.235 0.0417933
18.27 0.0578405
18.305 0.0212853
18.34 0.0359405
18.375 0.0336742
18.41 0.0834628
18.445 0.0883798
18.48 0.0391482
18.515 0.081998
18.55 0.051789
18.585 0.0479916
18.62 0.0324305
18.655 0.0396555
18.69 0.0638389
18.725 0.0227339
18.76 0.0543126
18.795 0.00883716
18.83 0.0493353
18.865 0.0630161
18.9 0.0386264
18.935 0.0432436
18.97 0.0639688
19.005 0.119239
19.04 0.111397
19.075 0.142329
19.11 0.112095
19.145 0.156956
19.18 0.103226
19.215 0.138031
19.25 0.12945
19.285 0.146741
19.32 0.240079
19.355 0.301348
19.39 0.43698
19.425 0.505571
19.46 0.560267
19.495 0.440729
19.53 0.353207
19.565 0.216609
19.6 0.124967
19.635 0.0679971
19.67 0.0341424
19.705 0.0525039
19.74 0.0419497
19.775 0.0162843
19.81 0.0395506
19.845 0.0474966
19.88 0.0404082
19.915 0.0290631
19.95 0.0573968
19.985 0.00789967
20.02 0.00198837
20.055 0.0390928
20.09 0.0404476
20.125 0.0631682
20.16 -0.00752161
20.195 0.0355005
20.23 0.0315264
20.265 0.0237587
20.3 0.0410155
20.335 0.00816925
20.37 -0.0247474
20.405 0.0109194
20.44 0.0430941
20.475 0.00440707
20.51 0.00777554
20.545 0.0175569
20.58 -0.0115641
20.615 0.0298801
20.65 0.0373473
20.685 0.0288186
20.72 0.00817666
20.755 0.0217097
20.79 0.038672
20.825 0.0249515
20.86 -0.00405937
20.895 0.0108126
20.93 -0.0128508
20.965 0.03325
21 0.00826474
21.035 0.0210451
21.07 0.00561254
21.105 0.0114837
21.14 0.0231293
21.175 0.0345952
21.21 -0.00587884
21.245 -0.0165875
21.28 0.0106519
21.315 0.0416387
21.35 0.00805689
21.385 0.0149703
21.42 -0.0116744
21.455 0.0352044
21.49 -0.00619139
21.525 0.00687565
21.56 0.0230265
21.595 0.0189851
21.63 0.0328407
21.665 0.021112
21.7 0.0289838
21.735 0.0322962
21.77 0.0081817
21.805 0.0300513
21.84 0.0178363
21.875 0.0210537
21.91 0.0533602
21.945 0.124191
21.98 0.161456
22.015 0.224792
22.05 0.241236
22.085 0.24997
22.12 0.141526
22.155 0.110719
22.19 0.0810313
22.225 0.0454632
22.26 0.0521031
22.295 0.0445338
22.33 0.0391814
22.365 0.0666103
22.4 0.059076
22.435 0.141267
22.47 0.106315
22.505 0.0953809
22.54 0.10572
22.575 0.0800908
22.61 0.0321346
22.645 0.0713991
22.68 0.0728466
22.715 0.151438
22.75 0.151073
22.785 0.145565
22.82 0.198801
22.855 0.20194
22.89 0.164235
22.925 0.211175
22.96 0.141999
22.995 0.159507
23.03 0.155141
23.065 0.103772
23.1 0.0677226
23.135 0.0478458
23.17 0.0262891
23.205 0.0596029
23.24 0.0345204
23.275 0.0599916
23.31 0.0565132
23.345 0.0331986
23.38 0.0434934
23.415 0.0759669
23.45 0.0583967
23.485 0.0538245
23.52 0.0366365
23.555 0.0359815
23.59 0.0373594
23.625 0.0628156
23.66 0.077911
23.695 0.0839276
23.73 0.0949781
23.765 0.117383
23.8 0.115887
23.835 0.113465
23.87 0.109663
23.905 0.123235
23.94 0.188893
23.975 0.258722
24.01 0.51737
24.045 0.702806
24.08 0.820384
24.115 0.863956
24.15 0.789778
24.185 0.564931
24.22 0.347898
24.255 0.202813
24.29 0.100411
24.325 0.0695115
24.36 0.0662352
24.395 0.0492354
24.43 0.0374497
24.465 0.0370197
24.5 0.0278661
24.535 0.0513741
24.57 0.0637199
24.605 0.0125045
24.64 0.0348894
24.675 0.0266729
24.71 0.0473899
24.745 0.068455
24.78 0.126829
24.815 0.171491
24.85 0.187705
24.885 0.200601
24.92 0.200985
24.955 0.206472
24.99 0.24027
25.025 0.209677
25.06 0.231647
25.095 0.163594
25.13 0.121705
25.165 0.0886376
25.2 0.0466904
25.235 0.0527575
25.27 0.0415389
25.305 0.0299987
25.34 0.0259471
25.375 0.0377097
25.41 0.0347218
25.445 0.069008
25.48 0.0906205
25.515 0.119678
25.55 0.204405
25.585 0.183693
25.62 0.172627
25.655 0.115754
25.69 0.0660332
25.725 0.0820635
25.76 0.0886171
25.795 0.0672862
25.83 0.068077
25.865 0.126028
25.9 0.217551
25.935 0.386676
25.97 0.694791
26.005 1.06977
26.04 1.4261
26.075 1.50319
26.11 1.45148
26.145 1.0744
26.18 0.689319
26.215 0.356953
26.25 0.19253
26.285 0.0915102
26.32 0.0527543
26.355 0.0607391
26.39 0.0883019
26.425 0.0418521
26.46 0.0461701
26.495 0.0150073
26.53 0.0186186
26.565 0.00588697
26.6 0.0280134
26.635 0.0730578
26.67 0.072969
26.705 0.0703459
26.74 0.0390085
26.775 0.0214636
26.81 0.0136599
26.845 -0.00449444
26.88 -0.00998238
26.915 -0.0018142
26.95 -0.00912847
26.985 0.0234516
27.02 0.0321186
27.055 0.00858628
27.09 0.0188868
27.125 0.0618568
27.16 0.0610267
27.195 0.0731409
27.23 0.120737
27.265 0.178873
27.3 0.167615
27.335 0.159681
27.37 0.138292
27.405 0.0865487
27.44 0.0519371
27.475 0.0208668
27.51 0.0302308
27.545 0.0421542
27.58 0.0379109
27.615 0.0557794
27.65 0.0763019
27.685 0.0801041
27.72 0.0654419
27.755 0.0277925
27.79 0.0262465
27.825 0.0596632
27.86 0.0223726
27.895 0.043679
27.93 0.0373897
27.965 0.0438268
28 0.0638146
28.035 0.0841742
28.07 0.134461
28.105 0.146037
28.14 0.173196
28.175 0.150365
28.21 0.130737
28.245 0.0673554
28.28 0.0696075
28.315 0.0934407
28.35 0.0918086
28.385 0.0980985
28.42 0.139753
28.455 0.209808
28.49 0.343547
28.525 0.500174
28.56 0.704406
28.595 0.808586
28.63 0.80063
28.665 0.680574
28.7 0.524305
28.735 0.307456
28.77 0.190845
28.805 0.0818967
28.84 0.0300089
28.875 0.0260454
28.91 0.0176326
28.945 0.0477548
28.98 0.00831559
29.015 0.0208589
29.05 0.0196526
29.085 0.00962036
29.12 0.0438497
29.155 0.0256876
29.19 0.0303568
29.225 0.0411638
29.26 0.0494005
29.295 0.0984162
29.33 0.0746161
29.365 0.0700522
29.4 0.0572866
29.435 0.0644575
29.47 0.0416861
29.505 0.0376457
29.54 0.00633726
29.575 0.0382497
29.61 0.0602073
29.645 0.0494726
29.68 0.0752081
29.715 0.0986253
29.75 0.113284
29.785 0.095377
29.82 0.074456
29.855 0.02876
29.89 0.0195764
29.925 0.040175
29.96 0.00662047
29.995 0.0278595
30.03 0.0013528
30.065 0.0699015
30.1 0.0864203
30.135 0.156341
30.17 0.173398
30.205 0.212883
30.24 0.192472
30.275 0.153606
30.31 0.105823
30.345 0.0445904
30.38 0.0170886
30.415 -0.0155283
30.45 -0.00294754
30.485 0.00343594
30.52 -0.00573542
30.555 0.00606349
30.59 0.0084652
30.625 -0.00537295
30.66 0.0277405
30.695 0.0245609
30.73 0.0430757
30.765 0.0501302
30.8 0.148612
30.835 0.158229
30.87 0.21835
30.905 0.237731
30.94 0.187804
30.975 0.148804
31.01 0.0655508
31.045 0.021638
31.08 -0.00769475
31.115 -0.0048285
31.15 0.000127953
31.185 -0.00730336
31.22 0.0302388
31.255 0.0469829
31.29 0.0510025
31.325 0.0805627
31.36 0.0884659
31.395 0.0856241
31.43 0.0581635
31.465 0.0495782
31.5 0.07138
31.535 0.0800538
31.57 0.20093
31.605 0.399061
31.64 0.506822
31.675 0.457073
31.71 0.46362
31.745 0.521977
31.78 0.630715
31.815 0.588661
31.85 0.4648
31.885 0.28139
31.92 0.142325
31.955 0.0395032
31.99 0.026414
32.025 0.0153279
32.06 0.0509091
32.095 0.0237856
32.13 0.0691652
32.165 0.119543
32.2 0.18515
32.235 0.301293
32.27 0.406168
32.305 0.627084
32.34 0.848695
32.375 0.91522
32.41 0.874239
32.445 0.745206
32.48 0.604605
32.515 0.464561
32.55 0.360905
32.585 0.359823
32.62 0.37507
32.655 0.471564
32.69 0.548446
32.725 0.544419
32.76 0.498634
32.795 0.36119
32.83 0.258946
32.865 0.212778
32.9 0.16977
32.935 0.187188
32.97 0.217163
33.005 0.249579
33.04 0.271875
33.075 0.247476
33.11 0.210829
33.145 0.149587
33.18 0.0866571
33.215 0.0654236
33.25 0.052734
33.285 0.0445222
33.32 0.0969436
33.355 0.174096
33.39 0.26565
33.425 0.385657
33.46 0.443241
33.495 0.419442
33.53 0.374517
33.565 0.307958
33.6 0.229691
33.635 0.136438
33.67 0.0837091
33.705 0.0621835
33.74 0.0348579
33.775 0.0197929
33.81 0.0467591
33.845 0.0621385
33.88 0.0785711
33.915 0.126834
33.95 0.220921
33.985 0.302309
34.02 0.381066
34.055 0.417059
34.09 0.449229
34.125 0.424145
34.16 0.357216
34.195 0.324144
34.23 0.275135
34.265 0.269659
34.3 0.30548
34.335 0.36948
34.37 0.410472
34.405 0.467673
34.44 0.454118
34.475 0.398364
34.51 0.271288
34.545 0.17568
34.58 0.117439
34.615 0.0458539
34.65 0.0295639
34.685 0.0336999
34.72 0.0657985
34.755 0.121605
34.79 0.211783
34.825 0.318556
34.86 0.376758
34.895 0.420731
34.93 0.421586
34.965 0.386244
35 0.339561
35.035 0.275169
35.07 0.209938
35.105 0.146111
35.14 0.129346
35.175 0.0958557
35.21 0.0657421
35.245 0.0586668
35.28 0.0276996
35.315 0.0298068
35.35 0.0288227
35.385 0.0400858
35.42 0.0407978
35.455 0.0546041
35.49 0.0608106
35.525 0.0987567
35.56 0.121519
35.595 0.154069
35.63 0.192729
35.665 0.28393
35.7 0.347199
35.735 0.476675
35.77 0.627146
35.805 0.789979
35.84 0.942007
35.875 1.08432
35.91 1.08775
35.945 1.06846
35.98 0.981273
36.015 0.875583
36.05 0.779101
36.085 0.672965
36.12 0.545617
36.155 0.403446
36.19 0.2802
36.225 0.183791
36.26 0.112943
36.295 0.0642587
36.33 0.0423405
36.365 0.00441605
36.4 -0.00762441
36.435 -0.00635976
36.47 -0.0012314
36.505 -0.0127972
36.54 -0.0210576
36.575 -0.0135828
36.61 0.00995865
36.645 0.00204367
36.68 0.0169956
36.715 0.0392052
36.75 0.0375601
36.785 0.056042
36.82 0.0768166
36.855 0.100359
36.89 0.135618
36.925 0.149246
36.96 0.135966
36.995 0.12396
37.03 0.098172
37.065 0.0629789
37.1 0.0457045
37.135 0.0140899
37.17 0.0291292
37.205 0.00943231
37.24 0.0029882
37.275 0.00844234
37.31 0.00043456
37.345 -0.0150482
37.38 -0.00651347
37.415 -0.00309408
37.45 -0.0140919
37.485 -0.0209338
37.52 -0.00833114
37.555 0.017485
37.59 0.0183191
37.625 0.0406135
37.66 0.0380611
37.695 0.0424011
37.73 0.0398975
37.765 0.0150057
37.8 0.0339741
37.835 0.0116742
37.87 -0.0011644
37.905 0.00815409
37.94 0.00101267
37.975 0.0236279
38.01 0.0070758
38.045 0.0106438
38.08 0.0157488
38.115 0.00240567
38.15 0.00819906
38.185 -0.0150893
38.22 0.00771308
38.255 -0.00827136
38.29 -0.00084321
38.325 0.0178558
38.36 0.0319235
38.395 0.0175949
38.43 0.00684754
38.465 -0.00254792
38.5 0.0107343
38.535 -0.00240758
38.57 -0.00724263
38.605 0.00574838
38.64 0.0179914
38.675 0.0166455
38.71 0.0308853
38.745 0.0491739
38.78 0.0610959
38.815 0.058834
38.85 0.0705034
38.885 0.0495024
38.92 0.0691688
38.955 0.0606051
38.99 0.0595518
39.025 0.0311001
39.06 0.0476764
39.095 0.0351042
39.13 0.0473349
39.165 0.0307005
39.2 0.0365132
39.235 0.0659177
39.27 0.0760566
39.305 0.0699142
39.34 0.0727028
39.375 0.0878904
39.41 0.0912867
39.445 0.0965964
39.48 0.106587
39.515 0.136212
39.55 0.132265
39.585 0.166361
39.62 0.187184
39.655 0.248001
39.69 0.316784
39.725 0.395769
39.76 0.449758
39.795 0.445444
39.83 0.438974
39.865 0.399091
39.9 0.334344
39.935 0.254172
39.97 0.198199
40.005 0.147162
40.04 0.102215
40.075 0.0631219
40.11 0.0693127
40.145 0.082174
40.18 0.0836923
40.215 0.0888126
40.25 0.102155
40.285 0.11362
40.32 0.119164
40.355 0.129064
40.39 0.159397
40.425 0.163957
40.46 0.204821
40.495 0.219398
40.53 0.249005
40.565 0.298284
40.6 0.414279
40.635 0.59168
40.67 0.734869
40.705 0.806052
40.74 0.770714
40.775 0.733885
40.81 0.624849
40.845 0.54345
40.88 0.467097
40.915 0.39011
40.95 0.318706
40.985 0.240747
41.02 0.176747
41.055 0.132053
41.09 0.0927241
41.125 0.0486998
41.16 0.014235
41.195 0.00702715
41.23 -0.00447366
41.265 -0.0112338
41.3 0.00250395
41.335 -0.0178917
41.37 0.00812133
41.405 0.018862
41.44 0.0144125
41.475 0.0438366
41.51 0.0581605
41.545 0.0721793
41.58 0.103493
41.615 0.119201
41.65 0.133965
41.685 0.121529
41.72 0.116139
41.755 0.10179
41.79 0.0745168
41.825 0.0670871
41.86 0.0547378
41.895 0.0632316
41.93 0.0598919
41.965 0.0399887
42 0.0359832
42.035 0.031425
42.07 0.0285627
42.105 0.0191895
42.14 0.0342945
42.175 0.0174463
42.21 0.00824525
42.245 0.00494508
42.28 0.038336
42.315 0.0512667
42.35 0.0728212
42.385 0.0842084
42.42 0.105106
42.455 0.135762
42.49 0.11512
42.525 0.125121
42.56 0.135973
42.595 0.126443
42.63 0.144326
42.665 0.147648
42.7 0.142338
42.735 0.145187
42.77 0.126489
42.805 0.134377
42.84 0.117945
42.875 0.120554
42.91 0.0957049
42.945 0.0781886
42.98 0.0961945
43.015 0.0893526
43.05 0.0583398
43.085 0.0376259
43.12 0.0345048
43.155 0.0284811
43.19 0.00602271
43.225 0.0136383
43.26 0.0166291
43.295 0.0151862
43.33 0.0108263
43.365 0.0112377
43.4 0.0107387
43.435 -0.00627512
43.47 0.00379914
43.505 0.00733795
43.54 -0.00697731
43.575 -0.000113172
43.61 -0.0167747
43.645 0.00659237
43.68 0.00330872
43.715 0.00973835
43.75 -0.0146363
43.785 0.0150095
43.82 0.000586495
43.855 0.0257493
43.89 0.0200198
43.925 0.0394278
43.96 0.0485446
43.995 0.0639562
44.03 0.0603853
44.065 0.0617286
44.1 0.0310201
44.135 0.0538122
44.17 0.0397014
44.205 0.0345998
44.24 0.0458711
44.275 0.0192054
44.31 0.0085092
44.345 0.00404018
44.38 0.0268776
44.415 0.0292398
44.45 0.0599087
44.485 0.0770048
44.52 0.150038
44.555 0.232915
44.59 0.317392
44.625 0.349407
44.66 0.308642
44.695 0.275942
44.73 0.211533
44.765 0.183916
44.8 0.191742
44.835 0.149348
44.87 0.174642
44.905 0.218664
44.94 0.221586
44.975 0.278298
45.01 0.284126
45.045 0.306891
45.08 0.297196
45.115 0.234816
45.15 0.168348
45.185 0.168287
45.22 0.138319
45.255 0.128279
45.29 0.120889
45.325 0.121062
45.36 0.12963
45.395 0.141238
45.43 0.133263
45.465 0.155251
45.5 0.171298
45.535 0.21278
45.57 0.256736
45.605 0.287449
45.64 0.262179
45.675 0.257064
45.71 0.22887
45.745 0.216084
45.78 0.198291
45.815 0.162638
45.85 0.131938
45.885 0.107838
45.92 0.0906084
45.955 0.0965001
45.99 0.0946543
46.025 0.0851748
46.06 0.0874944
46.095 0.0711107
46.13 0.0652029
46.165 0.0638488
46.2 0.0654562
46.235 0.103669
46.27 0.111345
46.305 0.167554
46.34 0.276822
46.375 0.38912
46.41 0.534964
46.445 0.566572
46.48 0.55999
46.515 0.433383
46.55 0.355617
46.585 0.273674
46.62 0.25359
46.655 0.249597
46.69 0.294197
46.725 0.328306
46.76 0.314695
46.795 0.246552
46.83 0.205944
46.865 0.156819
46.9 0.154061
46.935 0.144877
46.97 0.140894
47.005 0.150561
47.04 0.157536
47.075 0.169147
47.11 0.167377
47.145 0.18514
47.18 0.161596
47.215 0.198909
47.25 0.199271
47.285 0.220474
47.32 0.247368
47.355 0.242987
47.39 0.257695
47.425 0.230428
47.46 0.227284
47.495 0.231264
47.53 0.212467
47.565 0.183983
47.6 0.193388
47.635 0.160888
47.67 0.170636
47.705 0.134147
47.74 0.140031
47.775 0.106229
47.81 0.0704058
47.845 0.0581884
47.88 0.0523149
47.915 0.0416142
47.95 0.0272044
47.985 0.0299491
48.02 0.0253273
48.055 0.0109531
48.09 0.0149755
48.125 0.0140976
48.16 0.0145734
48.195 0.0172537
48.23 0.0359461
48.265 0.0263581
48.3 0.017986
48.335 0.0235268
48.37 0.0105731
48.405 -0.00435484
48.44 0.000678255
48.475 -0.005678
48.51 0.00213103
48.545 -0.0114791
48.58 -0.00784442
48.615 -0.0158842
48.65 0.0026831
48.685 -0.00498217
48.72 -0.0139429
48.755 -0.000781626
48.79 0.00368229
48.825 0.00851094
48.86 0.0155771
48.895 0.00516294
48.93 0.0159308
48.965 0.00668233
49 0.0315114
49.035 0.0298503
49.07 0.0567502
49.105 0.0735496
49.14 0.112728
49.175 0.167699
49.21 0.239164
49.245 0.337142
49.28 0.446047
49.315 0.523357
49.35 0.542283
49.385 0.444476
49.42 0.37031
49.455 0.284627
49.49 0.206974
49.525 0.148121
49.56 0.105419
49.595 0.0765198
49.63 0.0715131
49.665 0.0568226
49.7 0.0450507
49.735 0.0609227
49.77 0.078711
49.805 0.106845
49.84 0.140386
49.875 0.163694
49.91 0.172963
49.945 0.174009
49.98 0.178593
50.015 0.193378
50.05 0.215536
50.085 0.268564
50.12 0.320121
50.155 0.365066
50.19 0.389348
50.225 0.401151
50.26 0.369385
50.295 0.322166
50.33 0.271117
50.365 0.192918
50.4 0.125398
50.435 0.0906037
50.47 0.0886211
50.505 0.0568258
50.54 0.0614758
50.575 0.0441159
50.61 0.0292602
50.645 0.0102434
50.68 0.0228842
50.715 0.0345683
50.75 0.043821
50.785 0.0331622
50.82 0.0344641
50.855 0.0406736
50.89 0.0514758
50.925 0.0664184
50.96 0.0582641
50.995 0.0643903
51.03 0.0628662
51.065 0.0716973
51.1 0.090403
51.135 0.0987221
51.17 0.099371
51.205 0.128579
51.24 0.135466
51.275 0.120375
51.31 0.113943
51.345 0.10299
51.38 0.0853284
51.415 0.0867999
51.45 0.0771535
51.485 0.0793511
51.52 0.0999287
51.555 0.106033
51.59 0.127985
51.625 0.134602
51.66 0.147057
51.695 0.165341
51.73 0.17902
51.765 0.199339
51.8 0.210395
51.835 0.199782
51.87 0.193262
51.905 0.183099
51.94 0.201553
51.975 0.221793
52.01 0.29219
52.045 0.410353
52.08 0.572839
52.115 0.753678
52.15 0.84489
52.185 0.945304
52.22 0.871263
52.255 0.803315
52.29 0.627489
52.325 0.493087
52.36 0.343416
52.395 0.259233
52.43 0.187646
52.465 0.119887
52.5 0.113689
52.535 0.0949383
52.57 0.0910354
52.605 0.0803243
52.64 0.0789721
52.675 0.0887174
52.71 0.098024
52.745 0.0845042
52.78 0.105186
52.815 0.0964859
52.85 0.0941854
52.885 0.0988429
52.92 0.102817
52.955 0.103505
52.99 0.132083
53.025 0.148278
53.06 0.179299
53.095 0.180187
53.13 0.211368
53.165 0.234821
53.2 0.270934
53.235 0.293939
53.27 0.304434
53.305 0.29116
53.34 0.290418
53.375 0.249738
53.41 0.221953
53.445 0.204097
53.48 0.181838
53.515 0.158767
53.55 0.149136
53.585 0.131823
53.62 0.125893
53.655 0.107286
53.69 0.0988799
53.725 0.0765825
53.76 0.0717159
53.795 0.0756322
53.83 0.0482958
53.865 0.0650532
53.9 0.0605248
53.935 0.0711452
53.97 0.0639212
54.005 0.0662106
54.04 0.0791867
54.075 0.105556
54.11 0.155416
54.145 0.214963
54.18 0.247305
54.215 0.2549
54.25 0.213158
54.285 0.194921
54.32 0.145701
54.355 0.122488
54.39 0.114991
54.425 0.109764
54.46 0.124793
54.495 0.131017
54.53 0.13918
54.565 0.125421
54.6 0.100602
54.635 0.0653958
54.67 0.0360102
54.705 0.0144079
54.74 0.00507316
54.775 -0.00726334
54.81 -0.0124089
54.845 -0.00630511
54.88 -0.00565947
54.915 0.000698348
54.95 -0.00884386
54.985 0.00266238
55.02 -0.00563981
55.055 0.00678937
55.09 0.0114728
55.125 -0.0134223
55.16 -0.00723797
55.195 -0.015158
55.23 -0.0130354
55.265 -0.0122887
55.3 -0.00488116
55.335 8.64043e-05
55.37 0.00163766
55.405 0.000885312
55.44 -0.0102039
55.475 -0.00831541
55.51 0.00212199
55.545 -0.00248122
55.58 0.00965277
55.615 0.0227886
55.65 0.0184217
55.685 0.0187694
55.72 0.0120369
55.755 0.0118441
55.79 0.0310103
55.825 0.0366383
55.86 0.0293112
55.895 0.0140228
55.93 0.017153
55.965 0.0354278
56 0.035178
56.035 0.0229473
56.07 0.0406881
56.105 0.0395153
56.14 0.0444125
56.175 0.0348804
56.21 0.0401642
56.245 0.0505026
56.28 0.0593234
56.315 0.052123
56.35 0.0600314
56.385 0.0546301
56.42 0.0634761
56.455 0.0537241
56.49 0.0562179
56.525 0.0436201
56.56 0.0464985
56.595 0.0290973
56.63 0.0334345
56.665 0.0600982
56.7 0.0572011
56.735 0.0502041
56.77 0.0487667
56.805 0.027265
56.84 0.0241414
56.875 0.0125073
56.91 0.0163174
56.945 0.00569196
56.98 -0.00234103
57.015 0.0122363
57.05 0.00215292
57.085 0.0104895
57.12 -0.000291823
57.155 0.000353767
57.19 0.0189125
57.225 0.0144785
57.26 0.0305113
57.295 0.015759
57.33 0.00640502
57.365 0.0107792
57.4 0.0230026
57.435 0.0146902
57.47 0.0385505
57.505 0.0412261
57.54 0.0453598
57.575 0.0658967
57.61 0.0755832
57.645 0.0933768
57.68 0.112223
57.715 0.12454
57.75 0.117046
57.785 0.0887264
57.82 0.0682283
57.855 0.077763
57.89 0.0642851
57.925 0.0553756
57.96 0.047769
57.995 0.0622343
58.03 0.0713749
58.065 0.0521628
58.1 0.0348445
58.135 0.0425145
58.17 0.0363849
58.205 0.0400041
58.24 0.0434654
58.275 0.046139
58.31 0.0440851
58.345 0.038934
58.38 0.0209135
58.415 0.0292742
58.45 0.00883456
58.485 0.0123532
58.52 0.0153251
58.555 0.0237054
58.59 0.0185668
58.625 0.00976642
58.66 0.00561897
58.695 0.0107741
58.73 -0.0168681
58.765 -0.00107675
58.8 -0.0168707
58.835 0.00170294
58.87 0.00798605
58.905 0.0197996
58.94 0.015804
58.975 0.0274059
59.01 0.0451242
59.045 0.0414181
59.08 0.0418361
59.115 0.0534459
59.15 0.0693949
59.185 0.0655758
59.22 0.0879376
59.255 0.0643044
59.29 0.0699625
59.325 0.0553057
59.36 0.0490217
59.395 0.0543573
59.43 0.0372315
59.465 0.0426663
59.5 0.024527
59.535 0.0244568
59.57 0.0266119
59.605 0.0190007
59.64 0.0178629
59.675 0.00108843
59.71 0.0126572
59.745 0.0082986
59.78 0.0110535
59.815 0.0156233
59.85 0.0131617
59.885 0.0353721
59.92 0.0286622
59.955 0.0279506
59.99 0.0483708
60.025 0.0236824
60.06 0.0415179
60.095 0.0459173
60.13 0.0559392
60.165 0.0562564
60.2 0.0414457
60.235 0.0462917
60.27 0.0475794
60.305 0.0624814
60.34 0.0421757
60.375 0.0482512
60.41 0.0456627
60.445 0.0549053
60.48 0.0586887
60.515 0.0434854
60.55 0.0271043
60.585 0.0319913
60.62 0.0432464
60.655 0.0302351
60.69 0.0255274
60.725 0.0443152
60.76 0.0790094
60.795 0.0938733
60.83 0.1312
60.865 0.118378
60.9 0.118037
60.935 0.0912922
60.97 0.0697846
61.005 0.0532882
61.04 0.0372494
61.075 0.0345121
61.11 0.0366067
61.145 0.0343585
61.18 0.0463995
61.215 0.0535324
61.25 0.0454145
61.285 0.0675514
61.32 0.0388393
61.355 0.0605659
61.39 0.0278759
61.425 0.0455587
61.46 0.049614
61.495 0.0429828
61.53 0.0395405
61.565 0.0277012
61.6 0.0139228
61.635 0.0226666
61.67 -0.0140727
61.705 0.0153323
61.74 -0.000212495
61.775 0.00955959
61.81 0.0150855
61.845 0.00707635
61.88 0.0073495
61.915 0.00497608
61.95 0.00220524
61.985 0.0147408
62.02 0.00281981
62.055 -0.000367749
62.09 -0.00515463
62.125 -0.00795441
62.16 0.0157289
62.195 0.0174599
62.23 0.0209555
62.265 0.00948908
62.3 0.0144788
62.335 0.0082587
62.37 0.00362518
62.405 0.00470087
62.44 0.0167281
62.475 0.0256747
62.51 0.0331895
62.545 0.0196959
62.58 0.0214026
62.615 0.00694524
62.65 0.00683057
62.685 0.0099858
62.72 0.0107168
62.755 0.0110685
62.79 0.0053871
62.825 0.0030374
62.86 -0.0150786
62.895 -0.000119818
62.93 0.000955525
62.965 0.00357031
63 0.00368924
63.035 -0.00513547
63.07 -0.00841684
63.105 0.00765967
63.14 -0.00218501
63.175 -0.00886158
63.21 -0.0112432
63.245 -0.00324111
63.28 0.0104899
63.315 0.00936532
63.35 0.00967531
63.385 0.0129112
63.42 0.0216418
63.455 0.0239024
63.49 0.0165515
63.525 0.0295513
63.56 0.0240658
63.595 0.0351822
63.63 0.0173331
63.665 0.014717
63.7 0.0260831
63.735 0.0370707
63.77 0.0196321
63.805 0.0325887
63.84 0.0338827
63.875 0.0309565
63.91 0.0516784
63.945 0.0196465
63.98 0.0227149
64.015 0.00516655
64.05 0.00489106
64.085 -6.56893e-05
64.12 -0.00200149
64.155 -0.0140309
64.19 0.00953585
64.225 -0.00186138
64.26 0.0055722
64.295 0.00919379
64.33 -0.00601321
64.365 0.0126362
64.4 -0.00396146
64.435 0.0144568
64.47 0.005148
64.505 0.00786734
64.54 -0.0146557
64.575 0.0106774
64.6 -0.0175416