File: data/xrd/xy/2019-06-27T12_52_20.503028+00_00_LBL_A7.xy
'Id: "" Comment: "Integrate frame 4_methoxyph_I_Fa_Br_01_002.gfrmwith cursor Wedge Cursor #1" Operator: "UC Berkeley" Anode: "Co" Scantype: "TwoTheta" TimePerStep: "400"
24.46 -0.0311406
24.495 -0.0203142
24.53 0.0387928
24.565 0.0232944
24.6 0.0052372
24.635 0.00159975
24.67 0.0565059
24.705 -0.00581954
24.74 0.0232791
24.775 -0.0295387
24.81 0.0641586
24.845 0.0623152
24.88 0.104849
24.915 0.0169941
24.95 0.0140923
24.985 0.00571662
25.02 0.0117239
25.055 0.0407996
25.09 0.0749173
25.125 0.0521243
25.16 0.0533656
25.195 0.00518314
25.23 0.0385024
25.265 0.0256469
25.3 0.0517547
25.335 0.0478295
25.37 0.0589833
25.405 0.0866894
25.44 0.0322229
25.475 0.0260863
25.51 0.0295431
25.545 0.0778945
25.58 0.0433387
25.615 0.0294421
25.65 0.0704445
25.685 0.0148702
25.72 0.0403653
25.755 0.00913899
25.79 0.064342
25.825 0.0198617
25.86 0.0559052
25.895 0.0397784
25.93 0.0541155
25.965 0.0169518
26 0.0396991
26.035 0.0604432
26.07 0.0763902
26.105 0.0764787
26.14 0.119673
26.175 0.112365
26.21 0.15905
26.245 0.0940028
26.28 0.114136
26.315 0.088176
26.35 0.0802003
26.385 0.0816733
26.42 0.154767
26.455 0.0533707
26.49 0.0619464
26.525 0.0375128
26.56 0.0853263
26.595 -0.0024319
26.63 0.0317876
26.665 0.0580634
26.7 0.0796973
26.735 0.0217413
26.77 -0.00588502
26.805 0.0082726
26.84 0.0253767
26.875 0.00221624
26.91 0.0611504
26.945 0.0022059
26.98 0.081234
27.015 0.0640585
27.05 0.0638686
27.085 0.0880003
27.12 0.047616
27.155 0.092933
27.19 0.111037
27.225 0.0771306
27.26 0.0603983
27.295 0.0583922
27.33 0.0211754
27.365 0.0562697
27.4 0.0221196
27.435 0.0600638
27.47 0.119339
27.505 0.0759312
27.54 0.0014631
27.575 0.0233298
27.61 0.0540446
27.645 0.0440861
27.68 0.0742384
27.715 0.0228922
27.75 0.0629391
27.785 0.0455636
27.82 0.00105142
27.855 0.0729489
27.89 0.0420044
27.925 0.0790911
27.96 0.0457896
27.995 0.0922163
28.03 0.0699439
28.065 0.110716
28.1 0.0554158
28.135 0.102823
28.17 0.0530926
28.205 0.05037
28.24 0.111176
28.275 0.0424463
28.31 0.0516425
28.345 0.0679976
28.38 0.0593627
28.415 0.0522476
28.45 0.0620622
28.485 0.0371282
28.52 0.0356095
28.555 0.0104153
28.59 0.0385183
28.625 0.0748719
28.66 0.073941
28.695 0.0853777
28.73 0.067999
28.765 0.0881565
28.8 0.0292209
28.835 0.0244418
28.87 0.074987
28.905 0.0239681
28.94 0.0665143
28.975 0.00890624
29.01 -0.0120915
29.045 0.00569563
29.08 0.0413555
29.115 0.0233242
29.15 0.0320596
29.185 0.0137593
29.22 0.0122476
29.255 -0.00983949
29.29 0.030223
29.325 0.0641159
29.36 0.072196
29.395 0.0434748
29.43 0.0306402
29.465 0.0605775
29.5 0.0441626
29.535 0.0440331
29.57 0.0897007
29.605 0.0631756
29.64 0.0540628
29.675 0.082693
29.71 0.0638076
29.745 0.0922044
29.78 0.0801998
29.815 0.081233
29.85 0.0352406
29.885 0.0726664
29.92 0.0914614
29.955 0.266522
29.99 0.276377
30.025 0.458785
30.06 0.90118
30.095 1.53395
30.13 2.06661
30.165 2.61011
30.2 2.43915
30.235 2.12604
30.27 1.64454
30.305 0.878472
30.34 0.570637
30.375 0.293478
30.41 0.195531
30.445 0.164976
30.48 0.110486
30.515 0.154786
30.55 0.0733107
30.585 0.125039
30.62 0.0419056
30.655 0.0951632
30.69 0.0793037
30.725 0.065027
30.76 0.0639528
30.795 0.0620042
30.83 0.0292456
30.865 0.0822556
30.9 0.0338594
30.935 0.0347691
30.97 0.0162573
31.005 0.0511312
31.04 0.0511671
31.075 0.0719509
31.11 0.0287045
31.145 0.0515216
31.18 0.0429948
31.215 0.0648067
31.25 0.0689618
31.285 0.0326677
31.32 0.0264977
31.355 0.0114832
31.39 0.0512798
31.425 0.081503
31.46 0.0664836
31.495 0.0320991
31.53 0.0110159
31.565 0.0372302
31.6 0.0569534
31.635 0.0397582
31.67 0.0229584
31.705 0.0322317
31.74 0.00405993
31.775 0.0266437
31.81 0.0535866
31.845 0.0509779
31.88 -0.00627466
31.915 0.0430727
31.95 0.0556748
31.985 0.0270319
32.02 0.00900759
32.055 0.0250201
32.09 0.0280255
32.125 -0.011303
32.16 0.034686
32.195 0.0200522
32.23 0.0441504
32.265 0.033142
32.3 -0.0239952
32.335 0.0331164
32.37 0.0462486
32.405 -0.00142688
32.44 0.051852
32.475 0.00627024
32.51 0.0048568
32.545 0.0275001
32.58 0.0312799
32.615 0.0478942
32.65 -0.0182683
32.685 0.0640482
32.72 -8.39162e-05
32.755 0.0312852
32.79 0.0600197
32.825 0.0165887
32.86 0.064758
32.895 0.0851877
32.93 0.0381622
32.965 0.142546
33 0.126158
33.035 0.12279
33.07 0.130435
33.105 0.133811
33.14 0.0838187
33.175 0.058015
33.21 0.0451362
33.245 0.0607699
33.28 0.0173907
33.315 0.057124
33.35 0.0233628
33.385 0.0464906
33.42 0.0414382
33.455 0.027596
33.49 0.0407743
33.525 0.0502854
33.56 0.108787
33.595 0.0573743
33.63 0.0413438
33.665 0.0528229
33.7 0.0049731
33.735 0.0150978
33.77 -0.0127507
33.805 -0.00253106
33.84 -0.0106728
33.875 0.0187296
33.91 0.0257209
33.945 0.0146497
33.98 0.0502293
34.015 0.0120133
34.05 0.0376063
34.085 0.0142974
34.12 0.0434385
34.155 0.0668859
34.19 0.0203731
34.225 0.0548331
34.26 0.0410089
34.295 0.0432347
34.33 0.0348932
34.365 -0.00552202
34.4 0.0232984
34.435 0.0231024
34.47 0.0171137
34.505 0.0370117
34.54 0.0222121
34.575 0.0250257
34.61 0.042823
34.645 -0.00669083
34.68 0.0380726
34.715 0.0318857
34.75 -0.0245427
34.785 0.00255844
34.82 -0.000468456
34.855 0.0249281
34.89 0.0478869
34.925 0.0197688
34.96 0.0300593
34.995 0.022509
35.03 0.0290349
35.065 -0.0250381
35.1 0.0288428
35.135 -0.000704432
35.17 0.0210134
35.205 0.0195343
35.24 -0.0105505
35.275 0.0457205
35.31 0.0134856
35.345 0.0254629
35.38 0.0216794
35.415 0.014436
35.45 0.0220713
35.485 -0.00823548
35.52 0.0208338
35.555 0.0407575
35.59 0.0181284
35.625 -0.00610097
35.66 0.013495
35.695 0.0132257
35.73 0.0329504
35.765 0.00940845
35.8 -0.00399606
35.835 0.0263018
35.87 0.0353601
35.905 0.0255505
35.94 0.0415368
35.975 0.0435956
36.01 0.0132017
36.045 0.039745
36.08 0.05476
36.115 0.0342117
36.15 0.0141877
36.185 0.0259646
36.22 0.0275416
36.255 0.0360133
36.29 0.0296543
36.325 0.0222206
36.36 0.0456944
36.395 0.0280544
36.43 0.0208928
36.465 0.0330331
36.5 -0.0022889
36.535 0.0413829
36.57 0.0129123
36.605 0.0317117
36.64 -0.00319121
36.675 0.062462
36.71 0.0240688
36.745 -0.00947151
36.78 0.0155672
36.815 0.00397018
36.85 0.0248411
36.885 0.0241892
36.92 0.00755904
36.955 -0.0135965
36.99 0.0308846
37.025 0.00711905
37.06 0.00670065
37.095 0.013439
37.13 0.00548733
37.165 0.0158866
37.2 0.035113
37.235 0.0111121
37.27 0.0166168
37.305 -0.00795724
37.34 0.021936
37.375 0.0178281
37.41 -0.00539751
37.445 -0.0142618
37.48 -0.0157506
37.515 0.0309381
37.55 -0.00791519
37.585 -0.00428599
37.62 -0.000106992
37.655 -0.00530591
37.69 -0.00241672
37.725 -0.00302798
37.76 0.0143495
37.795 0.0399109
37.83 0.00809704
37.865 0.0306845
37.9 -0.0239146
37.935 0.023594
37.97 0.0412558
38.005 0.0303949
38.04 0.0298195
38.075 0.0214835
38.11 0.00444417
38.145 0.047158
38.18 0.0190244
38.215 0.0113629
38.25 0.00889394
38.285 -0.000994497
38.32 0.0167319
38.355 0.0110114
38.39 -0.00229684
38.425 -0.0117876
38.46 -0.0140376
38.495 -0.0128473
38.53 0.0253282
38.565 -0.000157932
38.6 0.0131627
38.635 0.0449284
38.67 0.0126885
38.705 -0.00455586
38.74 0.00330634
38.775 0.0205654
38.81 0.031344
38.845 0.02188
38.88 0.000358767
38.915 0.00397037
38.95 0.0467127
38.985 0.0332393
39.02 0.0114189
39.055 0.015368
39.09 0.0162566
39.125 0.0203901
39.16 0.021888
39.195 0.0163703
39.23 0.00641865
39.265 -0.00953091
39.3 0.00611978
39.335 0.00959109
39.37 -0.0146688
39.405 0.00195415
39.44 0.0117514
39.475 0.0116594
39.51 0.0359958
39.545 0.0475002
39.58 0.0201389
39.615 0.0524191
39.65 0.0456627
39.685 0.0630913
39.72 0.101584
39.755 0.123223
39.79 0.20361
39.825 0.293014
39.86 0.479662
39.895 0.922838
39.93 1.32938
39.965 1.83271
40 2.13906
40.035 2.20506
40.07 1.92847
40.105 1.62869
40.14 1.22117
40.175 0.797045
40.21 0.543601
40.245 0.340861
40.28 0.190253
40.315 0.133284
40.35 0.0935775
40.385 0.0705156
40.42 0.0654263
40.455 0.0280892
40.49 0.0541932
40.525 0.009381
40.56 0.0446965
40.595 0.0204353
40.63 0.013476
40.665 0.00371977
40.7 0.0376275
40.735 0.0260379
40.77 0.0202981
40.805 0.0162917
40.84 0.00790937
40.875 0.0300665
40.91 0.0131331
40.945 -0.0234867
40.98 0.0178832
41.015 0.0092589
41.05 0.00425428
41.085 -0.0104364
41.12 -0.00304609
41.155 0.0024331
41.19 0.00314168
41.225 0.0115688
41.26 0.00458337
41.295 0.00696838
41.33 0.0181054
41.365 0.0473251
41.4 0.0400198
41.435 0.028686
41.47 0.0364517
41.505 0.0234881
41.54 0.0355212
41.575 0.0490495
41.61 0.0217686
41.645 -0.0099847
41.68 0.0183666
41.715 0.0455211
41.75 0.00278768
41.785 -0.0147394
41.82 0.0145266
41.855 0.0316099
41.89 -0.0182032
41.925 -0.0123515
41.96 0.0349824
41.995 0.0174721
42.03 -0.0100048
42.065 0.0372985
42.1 0.000864882
42.135 0.0391478
42.17 0.00840569
42.205 0.00903729
42.24 0.00965295
42.275 -0.00241316
42.31 0.0101684
42.345 0.0205718
42.38 -0.00247555
42.415 0.0116274
42.45 0.000743362
42.485 0.0113987
42.52 -0.0016909
42.555 0.0200042
42.59 -0.00360955
42.625 0.0158342
42.66 0.00924198
42.695 0.0162339
42.73 -0.0181698
42.765 0.010106
42.8 -0.0117934
42.835 0.00838251
42.87 0.0108387
42.905 0.0388193
42.94 -0.00225178
42.975 0.0129301
43.01 0.0108847
43.045 0.0294388
43.08 0.0204758
43.115 0.0233419
43.15 0.0277342
43.185 0.0183615
43.22 0.0243707
43.255 0.00821761
43.29 0.0178787
43.325 -0.00739388
43.36 -0.000743062
43.395 0.033368
43.43 0.0125805
43.465 0.0500551
43.5 0.0214617
43.535 0.0185487
43.57 0.0240446
43.605 0.0421228
43.64 0.0149435
43.675 0.0403148
43.71 0.00375986
43.745 0.0142012
43.78 -0.0181925
43.815 0.0220149
43.85 0.0327765
43.885 0.0312909
43.92 0.0277901
43.955 0.0123241
43.99 0.0503744
44.025 0.0573839
44.06 0.0222594
44.095 0.00949838
44.13 0.0163612
44.165 0.0169363
44.2 -0.00662173
44.235 0.00571597
44.27 0.0167029
44.305 -0.00508103
44.34 0.0122025
44.375 0.0175036
44.41 0.0540142
44.445 0.0157126
44.48 0.0202395
44.515 0.018481
44.55 0.0335712
44.585 0.0543968
44.62 0.0733143
44.655 0.0295261
44.69 0.02445
44.725 0.0580545
44.76 0.0663403
44.795 0.0613614
44.83 0.0411173
44.865 0.0204128
44.9 0.0370469
44.935 0.0303372
44.97 -0.00487803
45.005 0.0377269
45.04 0.100172
45.075 0.124838
45.11 0.156861
45.145 0.220896
45.18 0.234045
45.215 0.288976
45.25 0.318206
45.285 0.255345
45.32 0.219088
45.355 0.164078
45.39 0.15595
45.425 0.0751864
45.46 0.0604029
45.495 0.0421194
45.53 0.0412174
45.565 0.0295
45.6 0.0299116
45.635 0.0279453
45.67 0.0489668
45.705 0.0248382
45.74 0.0808411
45.775 0.0538095
45.81 0.0991817
45.845 0.101632
45.88 0.0685911
45.915 0.0780982
45.95 0.160453
45.985 0.187726
46.02 0.223984
46.055 0.382568
46.09 0.602883
46.125 0.905381
46.16 1.3052
46.195 1.61984
46.23 1.86946
46.265 1.94676
46.3 1.72045
46.335 1.48203
46.37 1.09281
46.405 0.684518
46.44 0.429385
46.475 0.243964
46.51 0.1275
46.545 0.0977389
46.58 0.0653437
46.615 0.0667436
46.65 0.0424829
46.685 0.0582712
46.72 0.0455151
46.755 0.0576541
46.79 0.0342714
46.825 0.00871728
46.86 0.00676602
46.895 -0.00940808
46.93 0.0196408
46.965 0.0220976
47 0.0160861
47.035 -0.0213725
47.07 0.0253727
47.105 0.022376
47.14 0.0227713
47.175 -0.0133034
47.21 0.00768455
47.245 0.00278967
47.28 0.00968633
47.315 0.0139153
47.35 0.0081065
47.385 0.00784485
47.42 0.0595674
47.455 0.00194357
47.49 0.0105878
47.525 0.00866146
47.56 -0.00746411
47.595 -0.0108234
47.63 -0.00169052
47.665 0.0335783
47.7 0.0126374
47.735 0.0104736
47.77 0.00883497
47.805 0.0148229
47.84 0.0148878
47.875 0.0275817
47.91 0.0367655
47.945 0.0266664
47.98 0.0188768
48.015 0.0112586
48.05 0.0151426
48.085 -0.00770392
48.12 -0.00928169
48.155 0.0211166
48.19 0.0451034
48.225 0.0376275
48.26 0.0355542
48.295 0.0171514
48.33 0.0401962
48.365 0.0108954
48.4 0.0194202
48.435 0.0188148
48.47 0.0356501
48.505 0.0333163
48.54 0.0401461
48.575 0.0830397
48.61 0.146231
48.645 0.14778
48.68 0.242605
48.715 0.310618
48.75 0.353406
48.785 0.405795
48.82 0.364112
48.855 0.353677
48.89 0.303012
48.925 0.224977
48.96 0.132919
48.995 0.113078
49.03 0.0514959
49.065 0.0610919
49.1 0.0527659
49.135 0.0611102
49.17 0.0395258
49.205 0.00180408
49.24 0.016539
49.275 0.0189191
49.31 0.0233014
49.345 0.0479209
49.38 0.0223183
49.415 0.00148785
49.45 0.0191267
49.485 0.0130852
49.52 0.0173163
49.555 0.020125
49.59 0.0109148
49.625 -0.000955378
49.66 -0.00263496
49.695 0.0126607
49.73 0.00239525
49.765 0.00821684
49.8 0.0295809
49.835 -0.00686326
49.87 -0.00874029
49.905 0.0304968
49.94 0.0202634
49.975 0.0112548
50.01 0.0149933
50.045 0.028287
50.08 0.00652151
50.115 -0.00184031
50.15 0.00745207
50.185 0.0135715
50.22 0.0246521
50.255 0.018901
50.29 0.0141363
50.325 0.029409
50.36 0.016281
50.395 0.0331392
50.43 0.0212207
50.465 0.036571
50.5 0.0557676
50.535 0.040986
50.57 0.033768
50.605 0.021717
50.64 0.0274307
50.675 0.0206101
50.71 0.00856198
50.745 0.0027969
50.78 0.0207155
50.815 0.0112231
50.85 0.0204517
50.885 0.00911292
50.92 0.0331003
50.955 0.00892409
50.99 0.0285226
51.025 0.00316588
51.06 0.00798536
51.095 0.0070922
51.13 0.0199487
51.165 0.0113763
51.2 -0.0197537
51.235 0.00270653
51.27 0.00441199
51.305 0.00281151
51.34 0.0141641
51.375 0.00920343
51.41 0.00487448
51.445 0.000203609
51.48 0.00586315
51.515 -0.00407932
51.55 0.00999403
51.585 -0.0051169
51.62 0.0231546
51.655 0.00442915
51.69 -0.00617878
51.725 0.00572637
51.76 0.000498652
51.795 0.00940442
51.83 0.00310369
51.865 0.0134427
51.9 0.00506639
51.935 -0.00833772
51.97 -0.011214
52.005 -0.000780144
52.04 -0.0145953
52.075 0.00179898
52.11 0.000566767
52.145 0.0168127
52.18 0.0298175
52.215 0.0317276
52.25 -0.00543047
52.285 1.35871e-05
52.32 0.013832
52.355 0.00524339
52.39 -0.0113987
52.425 0.00732854
52.46 0.0158652
52.495 0.00726995
52.53 0.0250043
52.565 0.0228263
52.6 -0.00776598
52.635 0.0034287
52.67 0.0329555
52.705 0.0410354
52.74 0.0603314
52.775 0.0883598
52.81 0.13035
52.845 0.2096
52.88 0.300855
52.915 0.392051
52.95 0.49442
52.985 0.590576
53.02 0.573886
53.055 0.558966
53.09 0.525972
53.125 0.46011
53.16 0.346332
53.195 0.279007
53.23 0.181765
53.265 0.162254
53.3 0.100064
53.335 0.0648185
53.37 0.0512096
53.405 0.0327919
53.44 0.0451037
53.475 0.00178122
53.51 0.000278073
53.545 0.00689434
53.58 0.0217484
53.615 0.0314291
53.65 -0.000626074
53.685 0.0329369
53.72 0.0165468
53.755 0.0130677
53.79 0.0217317
53.825 0.0163497
53.86 0.0423157
53.895 0.0512249
53.93 0.0451398
53.965 0.0377158
54 0.047675
54.035 0.0251093
54.07 0.036509
54.105 0.0231998
54.14 -0.000161321
54.175 0.021371
54.21 0.00366497
54.245 -0.00215117
54.28 0.000410252
54.315 -0.00144449
54.35 0.000301131
54.385 0.0330254
54.42 -0.00161193
54.455 0.0195579
54.49 0.0178651
54.525 0.0401597
54.56 0.00609879
54.595 0.0247072
54.63 0.0219985
54.665 0.00858963
54.7 0.00685863
54.735 0.0102791
54.77 -0.00840002
54.805 0.0119706
54.84 0.00528643
54.875 0.0223885
54.91 0.0172234
54.945 0.00722686
54.98 0.0314096
55.015 0.0375272
55.05 0.00643987
55.085 0.00882338
55.12 0.0191584
55.155 0.0120896
55.19 0.0200992
55.225 0.0142836
55.26 0.00189935
55.295 -0.012815
55.33 0.0344743
55.365 0.0223981
55.4 0.0308355
55.435 0.01698
55.47 0.0246664
55.505 0.0162024
55.54 0.01164
55.575 0.0106017
55.61 0.0196312
55.645 0.0124875
55.68 0.0188949
55.715 0.00906092
55.75 0.0347158
55.785 0.0501614
55.82 0.0553156
55.855 0.0528622
55.89 0.0641312
55.925 0.0882154
55.96 0.138063
55.995 0.235222
56.03 0.313302
56.065 0.36844
56.1 0.494178
56.135 0.586971
56.17 0.580754
56.205 0.681686
56.24 0.638578
56.275 0.63843
56.31 0.528861
56.345 0.4643
56.38 0.346573
56.415 0.255398
56.45 0.201941
56.485 0.134027
56.52 0.0911343
56.555 0.044319
56.59 0.0369451
56.625 0.0267366
56.66 0.0323355
56.695 0.0255818
56.73 0.00898575
56.765 -0.00273012
56.8 -0.00506417
56.835 0.00277691
56.87 -0.00429035
56.905 0.015111
56.94 0.021778
56.975 0.0167053
57.01 0.00726692
57.045 0.0124162
57.08 0.0124049
57.115 0.0245049
57.15 0.0176999
57.185 0.00481145
57.22 -0.00476877
57.255 0.0198807
57.29 0.0106007
57.325 0.00376222
57.36 0.00773867
57.395 0.0164662
57.43 -0.0034706
57.465 0.0238746
57.5 0.0153867
57.535 0.0151496
57.57 0.00225419
57.605 -0.00693923
57.64 0.0359231
57.675 0.0341231
57.71 0.0219249
57.745 0.015775
57.78 0.0139215
57.815 0.0177404
57.85 0.018823
57.885 0.0155225
57.92 0.0217617
57.955 0.0213596
57.99 0.0153636
58.025 0.0236473
58.06 0.0108913
58.095 0.0119732
58.13 0.0248775
58.165 0.0301394
58.2 0.00883427
58.235 0.0172394
58.27 0.0182488
58.305 0.0187096
58.34 0.00570426
58.375 0.0187799
58.41 -0.00694158
58.445 0.0141617
58.48 0.00960477
58.515 0.0152208
58.55 0.0356099
58.585 0.00516559
58.62 0.0219991
58.655 0.0184559
58.69 -0.000872276
58.725 -0.000621816
58.76 0.00591693
58.795 0.00223232
58.83 -0.00130924
58.865 0.0221732
58.9 0.00182884
58.935 0.0192295
58.97 0.033584
59.005 0.0189709
59.04 0.0103775
59.075 0.0184325
59.11 0.0183965
59.145 0.0132718
59.18 0.0220813
59.215 -0.00549378
59.25 0.0168022
59.285 0.0126449
59.32 0.013472
59.355 -0.0111095
59.39 0.00410594
59.425 0.0119967
59.46 0.0421939
59.495 -0.00781042
59.53 0.0271148
59.565 0.0165548
59.6 0.00113467
59.635 0.00620697
59.67 -0.00334438
59.705 0.0178537
59.74 0.0206402
59.775 0.0359686
59.81 0.0226189
59.845 -0.00368439
59.88 0.0264643
59.915 0.0229428
59.95 0.0255932
59.985 0.0209637
60.02 0.00827005
60.055 0.0229948
60.09 0.0236971
60.125 0.0230886
60.16 0.043403
60.195 0.0204459
60.23 0.0316491
60.265 0.0262014
60.3 0.0360867
60.335 0.0451789
60.37 0.00428888
60.405 0.0306951
60.44 0.0249669
60.475 -0.0170113
60.51 -0.00557739
60.545 0.0140909
60.58 0.0386445
60.615 0.00631045
60.65 -0.000833552
60.685 0.0307349
60.72 0.0272488
60.755 0.029604
60.79 0.00736749
60.825 0.0303687
60.86 0.011991
60.895 0.00492775
60.93 0.0289193
60.965 0.0232739
61 0.0141995
61.035 0.0165083
61.07 0.004937
61.105 0.0117758
61.14 0.0249539
61.175 0.0235298
61.21 0.0231849
61.245 0.0411011
61.28 0.00561308
61.315 0.0268011
61.35 0.0200742
61.385 0.0243956
61.42 0.0251581
61.455 0.0396833
61.49 0.0800672
61.525 0.120282
61.56 0.128397
61.595 0.139409
61.63 0.205637
61.665 0.170899
61.7 0.239404
61.735 0.191925
61.77 0.196553
61.805 0.173754
61.84 0.145024
61.875 0.102182
61.91 0.0880212
61.945 0.0517021
61.98 0.0781624
62.015 0.0285544
62.05 0.0538047
62.085 0.0248438
62.12 4.25348e-05
62.155 0.0308611
62.19 0.016447
62.225 0.0169559
62.26 0.00324813
62.295 0.0258026
62.33 0.00433358
62.365 0.0234355
62.4 0.0163934
62.435 0.0406962
62.47 0.0428718
62.505 0.0706526
62.54 0.0859762
62.575 0.173736
62.61 0.209406
62.645 0.325578
62.68 0.445379
62.715 0.513084
62.75 0.523666
62.785 0.571117
62.82 0.518314
62.855 0.500826
62.89 0.393211
62.925 0.358514
62.96 0.290963
62.995 0.281553
63.03 0.161864
63.065 0.108446
63.1 0.0926319
63.135 0.079527
63.17 0.0454854
63.205 0.0528301
63.24 0.047486
63.275 0.0135128
63.31 0.021723
63.345 -0.0135261
63.38 0.0118398
63.415 -0.0175114
63.45 0.00862975
63.485 0.0179521
63.52 0.0167841
63.555 0.0290801
63.59 0.00786268
63.625 0.0173624
63.66 0.0249299
63.695 0.00779424
63.73 0.00267087
63.765 -0.0154568
63.8 -0.00622914
63.835 0.00777878
63.87 0.0108991
63.905 0.00815723
63.94 0.0181817
63.975 0.0191072
64.01 -0.00497215
64.045 0.0255069
64.08 0.0220929
64.115 0.00877417
64.15 0.00158395
64.185 -0.00180783
64.22 0.0359079
64.255 0.00931804
64.29 0.0205485
64.325 0.0248439
64.36 0.000419812
64.395 0.0198238
64.43 0.0273133
64.465 0.00274309
64.5 0.0324467
64.535 -0.00515187
64.57 0.0290945
64.605 0.00224097
64.64 0.0116925
64.675 0.0171313
64.71 0.0275527
64.745 0.00196067
64.78 0.0178519
64.815 0.00459618
64.85 0.0104229
64.885 0.0082852
64.92 0.015038
64.955 0.0185644
64.99 0.0252827
65.025 0.0151197
65.06 0.026106
65.095 0.00982528
65.13 0.0324774
65.165 0.000553208
65.2 0.00127408
65.235 0.00630243
65.27 0.0125113
65.305 0.0301468
65.34 0.0152781
65.375 0.0100891
65.41 0.00667379
65.445 -0.00906834
65.48 0.00283318
65.515 -0.00633565
65.55 -0.00752868
65.585 0.0155266
65.62 0.0177204
65.655 -0.00575563
65.69 0.0209537
65.725 0.00125644
65.76 -0.00528485
65.795 0.00935506
65.83 0.0141975
65.865 0.00379656
65.9 0.0167257
65.935 0.0109872
65.97 0.0108503
66.005 0.0249517
66.04 0.0105334
66.075 0.0146898
66.11 0.00164382
66.145 0.006778
66.18 0.0269879
66.215 0.00515342
66.25 0.0146362
66.285 0.0209276
66.32 0.0265304
66.355 0.00351682
66.39 0.0562674
66.425 0.091769
66.46 0.0931177
66.495 0.12419
66.53 0.176499
66.565 0.237502
66.6 0.294638
66.635 0.353022
66.67 0.402579
66.705 0.404187
66.74 0.356801
66.775 0.313571
66.81 0.272877
66.845 0.247723
66.88 0.174636
66.915 0.143601
66.95 0.103501
66.985 0.0934045
67.02 0.0503448
67.055 0.0496398
67.09 0.0304072
67.125 0.0309887
67.16 0.0374151
67.195 0.0271579
67.23 0.0008867
67.265 0.00783669
67.3 0.0241841
67.335 -0.00200577
67.37 0.0151298
67.405 0.0116591
67.44 0.019791
67.475 -0.00785757
67.51 -0.003939
67.545 0.0136887
67.58 0.0135532
67.615 0.00846609
67.65 0.0296909
67.685 0.00393468
67.72 0.000208079
67.755 0.00921563
67.79 0.00287373
67.825 0.00644341
67.86 -0.00120459
67.895 -0.000188152
67.93 0.012101
67.965 0.012344
68 0.00609694
68.035 0.00988554
68.07 0.00243232
68.105 0.035635
68.14 0.0135131
68.175 0.0610955
68.21 0.052729
68.245 0.0632569
68.28 0.0598506
68.315 0.0628557
68.35 0.0530555
68.385 0.053464
68.42 0.0153485
68.455 0.0327098
68.49 0.0404727
68.525 0.00723466
68.56 0.035644
68.595 0.0297879
68.63 0.00932314
68.665 0.0154743
68.7 0.0103752
68.735 -0.00406786
68.77 0.0167817
68.805 -0.00283233
68.84 0.00275818
68.875 0.0331035
68.91 0.0149205
68.945 0.0205392
68.98 0.0083914
69.015 0.0369574
69.05 0.0227844
69.085 0.00400275
69.12 0.0136917
69.155 -0.00099489
69.19 0.00885178
69.225 0.0405413
69.26 0.0303397
69.295 -0.00662365
69.33 0.017907
69.365 0.0199338
69.4 0.0274447
69.435 0.0246183
69.47 0.031087
69.505 0.00923386
69.54 0.016319
69.575 0.00459557
69.61 0.0178339
69.645 -0.00243584
69.68 0.00534025
69.715 0.00774198
69.75 0.0211486
69.785 -0.00265925
69.82 0.0141057
69.855 0.0219265
69.89 0.018224
69.925 0.0172913
69.96 0.00202044
69.995 0.0106023
70.03 0.0175082
70.065 0.0249601
70.1 0.00554136
70.135 0.0262264
70.17 0.000825574
70.205 0.00180494
70.24 0.00507774
70.275 0.00986712
70.31 -0.00313637
70.345 0.0287089
70.38 0.0306506
70.415 0.0180422
70.45 0.0317328
70.485 0.031664
70.52 0.0197997
70.555 0.0325053
70.59 0.0227962
70.625 0.0284274
70.66 0.0269362
70.695 -0.0131506
70.73 0.0404359
70.765 0.00484187
70.8 0.0179462
70.835 0.0143347
70.87 0.00755927
70.905 -0.00234827
70.94 -0.00391752
70.975 0.0186179
71.01 0.0147791
71.045 0.0101125
71.08 0.0305892
71.115 -0.0017197
71.15 -0.00548994
71.185 -0.000734597
71.22 -0.0149412
71.255 0.0156756
71.29 0.00619362
71.325 0.0187398
71.36 0.0136528
71.395 0.0240516
71.43 -0.000312808
71.465 0.0122088
71.5 0.0253922
71.535 0.0212897
71.57 0.00977348
71.605 -0.00668063
71.64 0.0250669
71.675 0.0242715
71.71 -0.00674218
71.745 0.0386267
71.78 -0.00203469
71.815 -0.0148965
71.85 0.0301524
71.885 0.0183611
71.92 0.0251508
71.955 0.022638
71.99 0.0296269
72.025 0.00947259
72.06 0.0359166
72.095 0.0208312
72.13 0.0506641
72.165 0.021181
72.2 0.0185244
72.235 0.0149077
72.27 0.0163438
72.305 0.012785
72.34 -0.0141022
72.375 0.0124797
72.41 0.00519053
72.445 0.0159263
72.48 0.0150253
72.515 0.0155098
72.55 -0.00194166
72.585 0.0211445
72.62 0.0210179
72.655 0.0364156
72.69 0.0357773
72.725 0.0668332
72.76 0.065501
72.795 0.0946483
72.83 0.106207
72.865 0.121493
72.9 0.147357
72.935 0.13716
72.97 0.156221
73.005 0.171234
73.04 0.149267
73.075 0.156007
73.11 0.127869
73.145 0.138473
73.18 0.0941255
73.215 0.0977488
73.25 0.0624554
73.285 0.0760665
73.32 0.054371
73.355 0.0292424
73.39 0.0437985
73.425 0.0226571
73.46 0.0342323
73.495 0.0254572
73.53 0.0134215
73.565 0.0055766
73.6 0.0173309
73.635 -0.00658181
73.67 0.0214805
73.705 0.0294144
73.74 0.0302342
73.775 0.00853476
73.81 0.00744693
73.845 0.00951789
73.88 0.0112826
73.915 0.0283723
73.95 0.0316576
73.985 0.0113393
74.02 0.0354446
74.055 0.00431034
74.09 0.00882174
74.125 0.00191969
74.16 0.0175375
74.195 0.00578128
74.23 0.0178056
74.265 0.00387201
74.3 -0.00405052
74.335 -0.00578998
74.37 0.0150628
74.405 0.0019955
74.44 0.0074439
74.475 -0.0110475
74.51 0.00985756
74.545 -0.00670046
74.58 0.00424938
74.615 -0.00113225
74.65 -0.0159678