File: data/xrd/xy/2019-05-30T15_13_14.483373+00_00_LBL_C6.xy
'Id: "" Comment: "Integrate frame EtNH3I_iPropyl_05_003.gfrmwith cursor Wedge Cursor #4" Operator: "UC Berkeley" Anode: "Co" Scantype: "TwoTheta" TimePerStep: "300"
15.055 -0.0363643
15.09 0.0322856
15.125 -0.0285309
15.16 0.0172975
15.195 -0.0234361
15.23 0.0194724
15.265 0.0728532
15.3 -0.00298945
15.335 -0.029054
15.37 0.0414391
15.405 -0.0239712
15.44 0.00814905
15.475 0.0152443
15.51 0.036406
15.545 0.0409633
15.58 0.0840555
15.615 0.0136495
15.65 -0.00427992
15.685 0.0224377
15.72 0.0432264
15.755 -0.00467849
15.79 0.0367272
15.825 0.0798677
15.86 -0.00229658
15.895 0.00761
15.93 0.0248167
15.965 0.067622
16 0.028298
16.035 0.00529179
16.07 0.0800052
16.105 0.01692
16.14 -0.000198757
16.175 0.0225863
16.21 0.0329334
16.245 -0.0240415
16.28 0.0758565
16.315 0.0362282
16.35 0.0452991
16.385 0.0728231
16.42 0.0162769
16.455 0.0143877
16.49 0.0099844
16.525 0.0246065
16.56 -0.00128156
16.595 0.047644
16.63 0.0214039
16.665 0.0036942
16.7 0.00419219
16.735 0.0578438
16.77 0.0331655
16.805 -0.0172629
16.84 0.0443869
16.875 0.0006334
16.91 0.00292851
16.945 0.0385458
16.98 0.0474479
17.015 0.00834962
17.05 0.0656695
17.085 0.0271326
17.12 0.0612561
17.155 0.0680245
17.19 0.0905513
17.225 0.0577847
17.26 0.0459259
17.295 0.0215505
17.33 0.0368849
17.365 -0.00211386
17.4 0.0612445
17.435 0.0590768
17.47 0.00857848
17.505 0.0671576
17.54 0.0737042
17.575 0.00186299
17.61 0.0931066
17.645 0.0104676
17.68 0.0563559
17.715 0.0579539
17.75 0.0569615
17.785 -0.00511556
17.82 0.0724997
17.855 0.040183
17.89 0.0471197
17.925 0.0512178
17.96 0.0329988
17.995 0.0257008
18.03 0.0495008
18.065 0.0435128
18.1 0.0427002
18.135 0.00140593
18.17 0.0567274
18.205 0.0271135
18.24 0.0153108
18.275 0.042686
18.31 0.028517
18.345 0.0484737
18.38 0.0410575
18.415 0.0658602
18.45 0.0298408
18.485 0.0479776
18.52 0.042958
18.555 0.0291562
18.59 0.0325088
18.625 0.0434781
18.66 0.0562217
18.695 0.0774538
18.73 0.126913
18.765 0.206823
18.8 0.15506
18.835 0.208039
18.87 0.193255
18.905 0.205636
18.94 0.124942
18.975 0.108955
19.01 0.0613372
19.045 0.0822569
19.08 0.0164478
19.115 0.0553305
19.15 0.0530679
19.185 0.0298994
19.22 0.0409131
19.255 0.01158
19.29 0.0421535
19.325 0.0505757
19.36 0.0482577
19.395 0.0649663
19.43 0.031257
19.465 0.0380773
19.5 0.0334539
19.535 0.057106
19.57 0.0148769
19.605 0.0599693
19.64 0.0231401
19.675 0.0395817
19.71 0.0764641
19.745 0.0554653
19.78 0.0643656
19.815 0.0595018
19.85 0.0224214
19.885 0.0351876
19.92 0.0263333
19.955 0.0619909
19.99 -0.00629306
20.025 0.0847616
20.06 0.045379
20.095 0.0712683
20.13 -0.0195088
20.165 0.094494
20.2 0.022062
20.235 0.0484709
20.27 0.073896
20.305 0.0873538
20.34 0.0231005
20.375 0.0306252
20.41 0.0438728
20.445 0.0523913
20.48 0.0428996
20.515 0.00469459
20.55 0.0363693
20.585 0.0606238
20.62 0.0416861
20.655 0.0631643
20.69 0.0348191
20.725 0.0739778
20.76 0.053187
20.795 0.0101922
20.83 0.0327284
20.865 0.0570486
20.9 0.0104772
20.935 0.0441036
20.97 0.0332355
21.005 0.0449541
21.04 0.0244508
21.075 0.0629121
21.11 0.0685929
21.145 0.055625
21.18 0.0999133
21.215 0.0885172
21.25 0.083896
21.285 0.0550967
21.32 0.0409344
21.355 0.0833806
21.39 0.0273044
21.425 0.00185559
21.46 0.00189161
21.495 0.0436553
21.53 0.0806443
21.565 0.064339
21.6 0.0189041
21.635 0.0566813
21.67 0.0171699
21.705 0.0525026
21.74 0.10153
21.775 0.0526082
21.81 0.0468377
21.845 0.0546255
21.88 0.0436369
21.915 0.0585155
21.95 0.0668906
21.985 0.0917217
22.02 0.0264685
22.055 0.0488295
22.09 0.075638
22.125 0.0310529
22.16 0.075022
22.195 0.0635657
22.23 0.0400803
22.265 0.0357195
22.3 0.067913
22.335 0.022556
22.37 0.0504845
22.405 0.0234236
22.44 0.0785083
22.475 -0.028546
22.51 0.0487049
22.545 0.0310131
22.58 0.032889
22.615 0.0610936
22.65 0.0581892
22.685 0.0536381
22.72 0.0528182
22.755 0.0100543
22.79 0.0575934
22.825 0.0383838
22.86 0.0470471
22.895 -0.00971856
22.93 0.0808972
22.965 0.0489275
23 0.0451256
23.035 0.0986599
23.07 0.0555356
23.105 0.0616533
23.14 0.0418326
23.175 -0.0211685
23.21 -0.0235993
23.245 0.064339
23.28 0.00718834
23.315 -0.00311282
23.35 0.00592675
23.385 0.0517718
23.42 0.0101109
23.455 0.0124018
23.49 0.0149179
23.525 0.0451957
23.56 0.0182543
23.595 0.0279949
23.63 0.0217971
23.665 0.0940187
23.7 -0.0139468
23.735 0.0452795
23.77 0.0717987
23.805 0.100363
23.84 0.0392923
23.875 0.00281803
23.91 -0.0283786
23.945 0.0197472
23.98 0.0335229
24.015 0.00796815
24.05 0.0121548
24.085 0.0555349
24.12 0.0368276
24.155 0.0523118
24.19 0.0307962
24.225 0.0205477
24.26 0.0138543
24.295 0.0386947
24.33 0.0436272
24.365 0.0424537
24.4 0.0353653
24.435 0.0284117
24.47 0.0195568
24.505 -0.0135899
24.54 0.0698257
24.575 -0.0081428
24.61 -0.00519628
24.645 0.0231022
24.68 0.0486398
24.715 0.0487952
24.75 0.0369413
24.785 0.0224305
24.82 -0.0305971
24.855 0.027445
24.89 0.0471937
24.925 0.0282966
24.96 0.0287809
24.995 0.072104
25.03 0.0549169
25.065 0.0403194
25.1 0.0403249
25.135 0.0272229
25.17 0.0495956
25.205 0.04572
25.24 0.0729007
25.275 0.0836268
25.31 0.0374894
25.345 0.0434615
25.38 0.0639603
25.415 0.0811221
25.45 0.0487849
25.485 0.0946511
25.52 0.0795242
25.555 0.0886249
25.59 0.0410301
25.625 0.0432263
25.66 0.0653791
25.695 0.0215957
25.73 0.0492031
25.765 0.0560508
25.8 0.0334192
25.835 0.0323841
25.87 0.0396891
25.905 -0.00809042
25.94 0.0533123
25.975 0.0474997
26.01 0.0202117
26.045 0.0532978
26.08 0.0227091
26.115 -0.00790407
26.15 0.0427557
26.185 0.0702447
26.22 0.0401491
26.255 0.039129
26.29 0.0411756
26.325 0.0502633
26.36 0.0556225
26.395 0.0829342
26.43 0.0209979
26.465 0.0899787
26.5 0.0311454
26.535 0.0339026
26.57 0.0433028
26.605 0.0528441
26.64 0.0189966
26.675 0.0464972
26.71 0.00667127
26.745 0.00377429
26.78 0.0262572
26.815 0.00504898
26.85 0.055342
26.885 0.0644701
26.92 -0.0105794
26.955 0.00992184
26.99 0.0731752
27.025 0.00938395
27.06 0.0208863
27.095 0.0448157
27.13 0.0368276
27.165 0.0872036
27.2 0.0243134
27.235 0.0636887
27.27 0.0292841
27.305 0.0462714
27.34 0.0151799
27.375 0.0598054
27.41 0.0490033
27.445 0.0940028
27.48 0.131071
27.515 0.0548012
27.55 0.0907826
27.585 0.0816065
27.62 0.115244
27.655 0.12048
27.69 0.162234
27.725 0.137416
27.76 0.141196
27.795 0.182703
27.83 0.225037
27.865 0.214124
27.9 0.297398
27.935 0.209709
27.97 0.18253
28.005 0.139573
28.04 0.0927703
28.075 0.158563
28.11 0.146708
28.145 0.133202
28.18 0.186832
28.215 0.207794
28.25 0.236773
28.285 0.221616
28.32 0.267283
28.355 0.343924
28.39 0.333735
28.425 0.403038
28.46 0.424359
28.495 0.287722
28.53 0.212948
28.565 0.119859
28.6 0.0728026
28.635 0.0931281
28.67 0.0601985
28.705 0.0633797
28.74 0.0548979
28.775 0.110154
28.81 0.101296
28.845 0.0885535
28.88 0.142217
28.915 0.100615
28.95 0.146261
28.985 0.220723
29.02 0.17989
29.055 0.177185
29.09 0.191278
29.125 0.177824
29.16 0.160236
29.195 0.1355
29.23 0.13468
29.265 0.134267
29.3 0.1754
29.335 0.155278
29.37 0.130576
29.405 0.0823015
29.44 0.0870965
29.475 0.0926069
29.51 0.0361038
29.545 0.0933726
29.58 0.0517787
29.615 0.0473811
29.65 0.0457929
29.685 0.050732
29.72 0.0062507
29.755 -0.0107818
29.79 0.030826
29.825 0.0261515
29.86 0.0248882
29.895 0.0117446
29.93 0.0218657
29.965 -0.0140828
30 -0.0147026
30.035 0.00296512
30.07 -0.0081698
30.105 -0.0195207
30.14 -0.0167216
30.175 0.0112595
30.21 -0.00717906
30.245 0.0160866
30.28 0.042095
30.315 0.0305097
30.35 0.0143378
30.385 -0.0273814
30.42 0.0173912
30.455 0.0398306
30.49 0.0225263
30.525 0.0215989
30.56 -0.00409771
30.595 0.0371846
30.63 0.0331204
30.665 0.0168098
30.7 0.0384834
30.735 0.0302551
30.77 0.0704296
30.805 -0.00534383
30.84 0.0779347
30.875 0.0635405
30.91 0.0413681
30.945 0.0155074
30.98 -0.00775755
31.015 0.0528816
31.05 0.0164502
31.085 0.0302213
31.12 0.00785438
31.155 -0.0122812
31.19 0.0118029
31.225 0.0123419
31.26 0.00961213
31.295 0.00982581
31.33 0.0229302
31.365 -0.0113901
31.4 -0.0185659
31.435 0.00886247
31.47 0.00801679
31.505 -0.0368976
31.54 0.0139476
31.575 -0.0307295
31.61 -0.00812705
31.645 -0.0103459
31.68 -0.012257
31.715 -0.00138596
31.75 -0.00850882
31.785 0.00871854
31.82 0.0253146
31.855 0.0161926
31.89 -0.0261087
31.925 -0.0154892
31.96 0.00885145
31.995 0.0147731
32.03 0.0307457
32.065 0.052282
32.1 0.0512586
32.135 0.067429
32.17 0.0434824
32.205 0.0852252
32.24 0.111949
32.275 0.105585
32.31 0.16491
32.345 0.195715
32.38 0.198428
32.415 0.242882
32.45 0.21486
32.485 0.206328
32.52 0.220997
32.555 0.176967
32.59 0.135228
32.625 0.104039
32.66 0.1092
32.695 0.0590567
32.73 0.0638454
32.765 0.0597525
32.8 0.0132383
32.835 0.0493947
32.87 0.0103931
32.905 0.0137411
32.94 0.0390485
32.975 0.0339458
33.01 0.0179818
33.045 -0.000529453
33.08 0.0463175
33.115 0.000129691
33.15 0.00109968
33.185 -0.0242445
33.22 0.00642889
33.255 -0.0251972
33.29 -0.00906048
33.325 0.00333638
33.36 0.00110951
33.395 -0.0233617
33.43 -0.00215657
33.465 0.00717626
33.5 -0.00871649
33.535 0.0108426
33.57 0.0199121
33.605 -0.0134276
33.64 0.0385412
33.675 0.0315507
33.71 0.0346652
33.745 0.03984
33.78 0.0294622
33.815 0.0499962
33.85 0.0223563
33.885 0.0366016
33.92 0.0555844
33.955 0.0378515
33.99 0.0409157
34.025 0.00237149
34.06 0.06774
34.095 0.0267911
34.13 0.0822065
34.165 0.0636272
34.2 0.0901527
34.235 0.0986474
34.27 0.0757653
34.305 0.12566
34.34 0.0911319
34.375 0.105061
34.41 0.076765
34.445 0.0923054
34.48 0.057353
34.515 0.029247
34.55 0.0494157
34.585 0.0500741
34.62 0.0517778
34.655 0.0264518
34.69 0.0265618
34.725 0.0540584
34.76 0.0640822
34.795 0.0461137
34.83 0.0499683
34.865 0.036463
34.9 0.036874
34.935 0.0510713
34.97 0.0668824
35.005 0.0403348
35.04 0.0509967
35.075 0.0360797
35.11 0.0471184
35.145 0.0266095
35.18 0.0301844
35.215 0.0165385
35.25 0.00746292
35.285 0.00277008
35.32 0.00816143
35.355 -0.000167685
35.39 0.0118027
35.425 0.0267231
35.46 -0.00749062
35.495 -0.00255618
35.53 0.0185645
35.565 0.0218928
35.6 0.0277976
35.635 0.0300396
35.67 0.0592379
35.705 0.00847706
35.74 0.0198368
35.775 0.00605489
35.81 0.014908
35.845 0.0147129
35.88 0.00508071
35.915 0.00143311
35.95 0.00081829
35.985 0.00562661
36.02 0.0110183
36.055 0.0182083
36.09 0.0116887
36.125 0.0118031
36.16 -0.00445642
36.195 -0.0164732
36.23 0.0103128
36.265 0.0194462
36.3 -0.00720053
36.335 0.0126217
36.37 -0.00467193
36.405 0.00245627
36.44 -0.00926363
36.475 -0.00754017
36.51 0.00216728
36.545 -0.0248005
36.58 0.0242226
36.615 0.00191581
36.65 -0.00826895
36.685 -0.0111007
36.72 0.0236662
36.755 0.0345388
36.79 0.00882404
36.825 0.0011842
36.86 0.0103019
36.895 0.0274344
36.93 -0.00516037
36.965 0.0143789
37 0.0362217
37.035 0.0121263
37.07 0.0354115
37.105 0.0241725
37.14 0.0162686
37.175 -0.00344619
37.21 0.0306513
37.245 -0.0155311
37.28 0.0279038
37.315 -0.0191587
37.35 0.0114934
37.385 0.0157281
37.42 0.00717034
37.455 -0.000647385
37.49 0.00481387
37.525 -0.0321943
37.56 -0.0103852
37.595 -0.0103896
37.63 -0.0202119
37.665 0.00967363
37.7 -0.0288233
37.735 -0.00537305
37.77 -0.0225092
37.805 0.00163885
37.84 -0.00860535
37.875 -0.00727111
37.91 -0.028057
37.945 -0.0170254
37.98 0.0133125
38.015 -0.0145013
38.05 -0.00318999
38.085 0.00535353
38.12 0.015746
38.155 0.0548786
38.19 0.0446149
38.225 0.0354402
38.26 0.000140402
38.295 0.0337039
38.33 0.0112573
38.365 -0.00353648
38.4 0.02119
38.435 -0.00227409
38.47 0.00100241
38.505 -0.0118122
38.54 -0.00783487
38.575 -0.00200762
38.61 0.01113
38.645 -0.00134249
38.68 -0.00234892
38.715 0.0385282
38.75 0.0214497
38.785 0.0478541
38.82 0.0744626
38.855 0.0730463
38.89 0.0943874
38.925 0.100339
38.96 0.135514
38.995 0.11066
39.03 0.122629
39.065 0.11736
39.1 0.103847
39.135 0.0735584
39.17 0.0484901
39.205 0.0480833
39.24 0.050706
39.275 0.0340247
39.31 0.0283927
39.345 0.0397921
39.38 0.00755357
39.415 0.0314172
39.45 0.0153481
39.485 0.0273485
39.52 0.0147378
39.555 0.00778409
39.59 -0.00293352
39.625 0.00337016
39.66 0.00754159
39.695 -0.00260137
39.73 0.0152472
39.765 -0.00719295
39.8 -0.0253984
39.835 0.0115324
39.87 0.00937515
39.905 -0.0158372
39.94 0.00765035
39.975 -0.0203827
40.01 -0.00654944
40.045 -0.014787
40.08 -0.00225493
40.115 -0.0051836
40.15 -0.0151249
40.185 0.0179096
40.22 -0.0104386
40.255 0.0191194
40.29 -0.0234193
40.325 -0.0150594
40.36 -0.00380053
40.395 -0.00774243
40.43 0.00116329
40.465 0.00748191
40.5 -0.00333276
40.535 -0.00758422
40.57 -0.00714594
40.605 -0.0207486
40.64 0.0136589
40.675 0.00645589
40.71 -0.0130422
40.745 -0.00203991
40.78 -0.0066274
40.815 0.00833929
40.85 0.0177046
40.885 0.00453781
40.92 -0.00346205
40.955 0.0246115
40.99 0.0246514
41.025 -0.0293801
41.06 0.0155035
41.095 -0.0155906
41.13 -0.00552452
41.165 4.50145e-05
41.2 0.0121551
41.235 0.018874
41.27 0.0116098
41.305 0.012395
41.34 0.0322959
41.375 -0.00184626
41.41 0.025813
41.445 0.024079
41.48 0.0272254
41.515 -0.0128177
41.55 -0.0142116
41.585 0.00255534
41.62 0.00923147
41.655 0.00669168
41.69 0.00333866
41.725 0.00687328
41.76 -0.00404265
41.795 0.0171094
41.83 0.00734871
41.865 -0.0222844
41.9 0.0245461
41.935 -0.0296633
41.97 -0.0139573
42.005 -0.0127863
42.04 0.00102337
42.075 0.010166
42.11 0.0378811
42.145 0.00537167
42.18 -0.000823053
42.215 0.0242425
42.25 0.0302106
42.285 -0.0202025
42.32 -0.0143752
42.355 -0.00218821
42.39 -0.00533505
42.425 -0.0146512
42.46 0.0134236
42.495 0.00737414
42.53 0.0295453
42.565 0.00911103
42.6 0.0345066
42.635 0.00169456
42.67 -0.00806418
42.705 0.00258139
42.74 0.015867
42.775 0.00230148
42.81 0.00110109
42.845 0.0119793
42.88 0.025551
42.915 0.0301105
42.95 0.0189091
42.985 0.0162606
43.02 0.0279206
43.055 0.0415066
43.09 0.0113408
43.125 0.0122326
43.16 0.0261887
43.195 0.018651
43.23 0.0227865
43.265 0.00826532
43.3 0.0601828
43.335 0.0438343
43.37 0.0438874
43.405 0.0469497
43.44 0.0291137
43.475 0.0616288
43.51 0.0435072
43.545 0.0620945
43.58 0.0316951
43.615 0.0415709
43.65 0.0737435
43.685 0.08781
43.72 0.0456263
43.755 0.060025
43.79 0.039561
43.825 0.057609
43.86 0.0450876
43.895 0.0396051
43.93 0.0757897
43.965 0.0783517
44 0.0381726
44.035 0.0643218
44.07 0.028645
44.105 0.0351597
44.14 0.0483202
44.175 0.0513655
44.21 0.0456641
44.245 0.0429519
44.28 0.0396612
44.315 0.0451485
44.35 0.0445201
44.385 0.0397853
44.42 0.0466901
44.455 0.0373596
44.49 0.0388699
44.525 0.0229757
44.56 -0.00960585
44.595 0.00671636
44.63 0.0456382
44.665 0.00996682
44.7 0.000259759
44.735 0.043232
44.77 0.013523
44.805 0.0249782
44.84 -0.0155752
44.875 -0.0278573
44.91 0.00837279
44.945 0.0101932
44.98 0.00450053
45.015 0.00588199
45.05 -0.00893103
45.085 0.00494158
45.12 0.0219995
45.155 -0.00434248
45.19 -0.0062189
45.225 0.0234033
45.26 0.0418743
45.295 0.00148836
45.33 -0.0129092
45.365 0.0159131
45.4 0.00752884
45.435 -0.0191439
45.47 0.00257684
45.505 -0.00677976
45.54 -0.0196605
45.575 0.0270946
45.61 0.0280532
45.645 -0.0208718
45.68 -0.000357557
45.715 -0.0157776
45.75 0.0165253
45.785 0.0115111
45.82 0.0489973
45.855 0.0223027
45.89 0.0376867
45.925 0.0489573
45.96 0.0796992
45.995 0.141724
46.03 0.193748
46.065 0.293552
46.1 0.325625
46.135 0.314902
46.17 0.355835
46.205 0.307762
46.24 0.277449
46.275 0.237825
46.31 0.163872
46.345 0.148698
46.38 0.0719127
46.415 0.0896218
46.45 0.0719769
46.485 0.0554284
46.52 0.0555556
46.555 0.0449312
46.59 0.0368662
46.625 0.0292722
46.66 0.040591
46.695 0.0758207
46.73 0.112634
46.765 0.106701
46.8 0.0987935
46.835 0.100772
46.87 0.111219
46.905 0.110133
46.94 0.12534
46.975 0.169492
47.01 0.156557
47.045 0.221252
47.08 0.248379
47.115 0.23471
47.15 0.271323
47.185 0.281594
47.22 0.274959
47.255 0.261145
47.29 0.223738
47.325 0.179608
47.36 0.145782
47.395 0.141993
47.43 0.0798496
47.465 0.0585984
47.5 0.0641249
47.535 0.0721014
47.57 0.0341928
47.605 0.0659779
47.64 0.0605106
47.675 0.0689209
47.71 0.056279
47.745 0.0664986
47.78 0.0699719
47.815 0.0447543
47.85 0.0719185
47.885 0.0478748
47.92 0.0596891
47.955 0.0384508
47.99 0.056026
48.025 0.0851622
48.06 0.0781544
48.095 0.114582
48.13 0.160096
48.165 0.202552
48.2 0.173871
48.235 0.210017
48.27 0.178736
48.305 0.178503
48.34 0.117628
48.375 0.078862
48.41 0.059329
48.445 0.0657327
48.48 0.0536413
48.515 0.052085
48.55 0.038216
48.585 0.0288573
48.62 0.0244763
48.655 0.0119761
48.69 0.0228688
48.725 0.000879994
48.76 -0.0110517
48.795 0.0117857
48.83 -0.00597145
48.865 0.00281162
48.9 0.00639968
48.935 0.00621843
48.97 -0.00372992
49.005 -0.0136088
49.04 -0.00740068
49.075 -0.00887265
49.11 0.00268688
49.145 -0.0118525
49.18 -0.0127686
49.215 0.0150564
49.25 0.00362294
49.285 -0.0148057
49.32 0.0205495
49.355 0.00798385
49.39 0.00560363
49.425 -0.0269352
49.46 -0.00518684
49.495 -0.00594836
49.53 -0.0218189
49.565 0.00014771
49.6 -0.0127962
49.635 0.00857916
49.67 -0.000676698
49.705 -0.00148242
49.74 -0.00681576
49.775 0.0202026
49.81 -0.00918259
49.845 -0.0061787
49.88 -0.0108175
49.915 0.00203836
49.95 -0.000611186
49.985 -0.00729877
50.02 -0.0145753
50.055 0.00310893
50.09 0.00358338
50.125 0.011637
50.16 0.000985633
50.195 0.0152756
50.23 -0.0144285
50.265 -0.0134922
50.3 -2.23405e-05
50.335 -0.0135464
50.37 -0.0221798
50.405 -0.00599865
50.44 -0.0105892
50.475 -0.0040675
50.51 -0.0242885
50.545 -0.0163486
50.58 0.000763087
50.615 -0.0110931
50.65 -0.0213509
50.685 -0.0119017
50.72 0.0135209
50.755 -0.0162773
50.79 -0.00779526
50.825 -0.00750324
50.86 0.0256574
50.895 0.00584543
50.93 -0.00775291
50.965 0.00733716
51 -0.000215395
51.035 0.00872744
51.07 -0.00556804
51.105 -0.00242327
51.14 0.0182623
51.175 0.0179993
51.21 0.00221247
51.245 -0.00756293
51.28 0.00370187
51.315 0.00850372
51.35 -0.0279779
51.385 0.0142741
51.42 0.00849506
51.455 -0.004257
51.49 0.00511553
51.525 -0.0198346
51.56 -0.0040469
51.595 -0.0138963
51.63 -0.00236362
51.665 -0.00831372
51.7 0.0124711
51.735 0.00595656
51.77 -0.0181451
51.805 -0.0109604
51.84 -0.0263255
51.875 -0.00537642
51.91 -0.0147349
51.945 -0.00706138
51.98 -0.0112291
52.015 0.00333669
52.05 -0.00473678
52.085 0.0139092
52.12 0.000432268
52.155 0.0152499
52.19 -0.000941391
52.225 0.0089021
52.26 -0.0128404
52.295 -0.0014445
52.33 0.015708
52.365 -0.00034803
52.4 -0.00125008
52.435 0.00993633
52.47 -0.0153182
52.505 0.0025518
52.54 0.0216482
52.575 -0.0145346
52.61 -0.0145955
52.645 0.00381097
52.68 0.0153072
52.715 -0.00409141
52.75 0.0350923
52.785 -0.0012593
52.82 0.0047244
52.855 0.0315443
52.89 0.0350941
52.925 0.00943764
52.96 0.0182407
52.995 0.00158479
53.03 0.0219641
53.065 0.00617066
53.1 0.0199495
53.135 -0.00268421
53.17 0.00324133
53.205 -0.00927425
53.24 -0.000770968
53.275 0.00240389
53.31 0.0183589
53.345 0.0180829
53.38 -0.005063
53.415 -0.00474845
53.45 -0.00490838
53.485 -0.0237536
53.52 -0.00645167
53.555 -0.0196842
53.59 0.000987458
53.625 -0.0117622
53.66 -0.00395408
53.695 -0.0143968
53.73 -0.0198528
53.765 -0.00220665
53.8 -0.00970318
53.835 0.00975778
53.87 -0.00276066
53.905 -0.0134292
53.94 0.00339134
53.975 0.0017704
54.01 -0.00784005
54.045 -0.0163975
54.08 -0.0144798
54.115 0.00238302
54.15 -0.0135162
54.185 0.00803591
54.22 9.75603e-05
54.255 -0.0103631
54.29 -0.00999787
54.325 0.00623846
54.36 0.00329127
54.395 0.0103828
54.43 0.0142801
54.465 0.0256816
54.5 0.00849692
54.535 0.0371307
54.57 0.028457
54.605 0.0543565
54.64 0.0426629
54.675 0.0443869
54.71 0.0277149
54.745 0.0420505
54.78 0.0438099
54.815 0.0540314
54.85 0.0373071
54.885 0.0222165
54.92 0.0294961
54.955 0.0245409
54.99 0.0199655
55.025 0.0185641
55.06 0.0369723
55.095 0.00891071
55.13 0.0151762
55.165 -0.00712631
55.2 0.0156341
55.235 0.0199972
55.27 0.0367997
55.305 0.0195556
55.34 0.0159959
55.375 0.0215331
55.41 0.00632127
55.445 0.0199455
55.48 0.0199842
55.515 0.0244467
55.55 0.0174028
55.585 0.0189718
55.62 0.0351421
55.655 0.0172833
55.69 0.039426
55.725 0.0319469
55.76 0.0243192
55.795 0.0122553
55.83 -0.00460313
55.865 -0.000880785
55.9 -0.00252179
55.935 -0.00202156
55.97 -0.0157228
56.005 -0.00325321
56.04 0.00185643
56.075 -0.0287225
56.11 -0.00122064
56.145 -0.0225606
56.18 -0.00838071
56.215 -0.0141844
56.25 -0.010427
56.285 -0.0279346
56.32 -0.00626897
56.355 0.00257459
56.39 -0.0132668
56.425 -0.0193102
56.46 -0.0285789
56.495 0.0152634
56.53 -0.00965024
56.565 -0.000968728
56.6 -0.00424101
56.635 -0.00345878
56.67 -0.0176597
56.705 -0.0188996
56.74 0.00436277
56.775 0.000839648
56.81 0.0118558
56.845 -0.00912661
56.88 -0.0105019
56.915 0.005742
56.95 -0.0273617
56.985 -0.0128749
57.02 -0.00302287
57.055 0.00602165
57.09 -0.00215817
57.125 -0.0186937
57.16 -0.00875075
57.195 0.0285395
57.23 0.00748197
57.265 0.0189389
57.3 -0.00434621
57.335 0.0328981
57.37 0.0476112
57.405 0.0457719
57.44 0.0161787
57.475 0.00882309
57.51 0.0115715
57.545 0.0126241
57.58 -0.00344827
57.615 0.025896
57.65 0.0309864
57.685 0.0225499
57.72 0.000835929
57.755 0.0120981
57.79 0.00992737
57.825 0.0135561
57.86 0.0102372
57.895 -0.00879667
57.93 -0.0178722
57.965 -0.0219114
58 0.0035773
58.035 0.00822316
58.07 0.010624
58.105 0.0198796
58.14 0.0085118
58.175 0.0228656
58.21 0.0196506
58.245 0.0282026
58.28 0.010262
58.315 0.0239675
58.35 0.0230606
58.385 0.0515929
58.42 0.00808861
58.455 0.0200866
58.49 0.0329881
58.525 0.0811671
58.56 0.0815361
58.595 0.0903025
58.63 0.10522
58.665 0.15252
58.7 0.129879
58.735 0.125668
58.77 0.103439
58.805 0.0895049
58.84 0.109175
58.875 0.0854946
58.91 0.0629202
58.945 0.0481339
58.98 0.0699272
59.015 0.0470188
59.05 0.0577434
59.085 0.0441042
59.12 0.0409423
59.155 0.053663
59.19 0.010774
59.225 0.0172152
59.26 0.031111
59.295 0.00504573
59.33 -0.00951973
59.365 0.012769
59.4 0.020747
59.435 0.00777459
59.47 0.031879
59.505 0.0088181
59.54 -0.000393817
59.575 -0.00934671
59.61 -0.00936924
59.645 0.0309713
59.68 0.00509645
59.715 0.0245249
59.75 0.0227083
59.785 -0.00254616
59.82 0.00313959
59.855 -0.00074059
59.89 0.0266372
59.925 0.0105325
59.96 -0.0269816
59.995 0.019962
60.03 -0.0115375
60.065 0.0110583
60.1 -0.000946361
60.135 0.0104235
60.17 0.0177986
60.205 0.00836658
60.24 -0.00921959
60.275 0.0106258
60.31 -0.0160965
60.345 6.30038e-05
60.38 0.0198094
60.415 0.000604994
60.45 0.0180287
60.485 0.00911398
60.52 0.0188124
60.555 0.0225231
60.59 -0.00332035
60.625 0.010371
60.66 -0.00268069
60.695 0.0352676
60.73 0.0182669
60.765 0.0142808
60.8 0.0130116
60.835 0.0164729
60.87 0.017249
60.905 0.0249645
60.94 0.0186872
60.975 0.0264506
61.01 -0.00179743
61.045 0.0158318
61.08 0.0164315
61.115 -5.31258e-05
61.15 -0.000473812
61.185 0.0181366
61.22 0.0289882
61.255 0.0237067
61.29 0.0239918
61.325 0.0172884
61.36 0.0045988
61.395 0.00938837
61.43 0.00245728
61.465 0.0122723
61.5 0.0232814
61.535 0.0219992
61.57 0.0468199
61.605 0.0208957
61.64 0.0179808
61.675 0.00331608
61.71 0.00438871
61.745 0.00666179
61.78 0.00469208
61.815 0.0292867
61.85 0.0235249
61.885 0.0247594
61.92 0.000584331
61.955 0.0139577
61.99 0.0208013
62.025 0.0345103
62.06 0.0156571
62.095 0.03023
62.13 -0.00177781
62.165 0.0230935
62.2 0.0225412
62.235 0.0113593
62.27 0.021019
62.305 -0.00362685
62.34 -0.00887402
62.375 -0.00747391
62.41 -0.0123928
62.445 0.0114481
62.48 0.00220877
62.515 0.00873804
62.55 -0.00605859
62.585 -0.00638932
62.62 0.00307966
62.655 0.0109412
62.69 0.010581
62.725 -0.0013642
62.76 -0.00544706
62.795 0.0107907
62.83 0.0076577
62.865 0.0080963
62.9 -0.0154017
62.935 0.00982511
62.97 0.0192463
63.005 0.0132997
63.04 0.0095271
63.075 0.0119204
63.11 -0.0255438
63.145 -0.00614475
63.18 0.00917512
63.215 0.0112301
63.25 0.00321548
63.285 0.01485
63.32 0.0129086
63.355 -0.00879398
63.39 -0.00341897
63.425 0.00398933
63.46 0.00258603
63.495 0.00314068
63.53 -0.000369652
63.565 -0.0164432
63.6 -0.019604
63.635 -0.00901909
63.67 0.00842715
63.705 -0.011137
63.74 -0.0144471
63.775 -0.0263924
63.78 -0.0266271