File: data/xrd/xy/2019-08-08T16_56_58.410591+00_00_LBL_A4.xy
'Id: "" Comment: "Integrate frame 4fluorobenzyl_02_001.gfrmwith cursor Wedge Cursor #2" Operator: "UC Berkeley" Anode: "Co" Scantype: "TwoTheta" TimePerStep: "500"
13.245 -0.036915
13.29 0.364299
13.335 0.697277
13.38 0.867474
13.425 1.32592
13.47 1.62197
13.515 1.87871
13.56 1.73295
13.605 1.53638
13.65 1.10667
13.695 0.772745
13.74 0.412884
13.785 0.177978
13.83 0.0216665
13.875 0.024648
13.92 -0.00845501
13.965 0.0326405
14.01 0.0199337
14.055 0.015022
14.1 0.0256614
14.145 0.0657769
14.19 0.0252782
14.235 0.0533398
14.28 0.0576683
14.325 0.0679918
14.37 0.085306
14.415 0.0918516
14.46 0.0266773
14.505 0.0068934
14.55 0.0266962
14.595 0.0403558
14.64 0.0779234
14.685 0.0641827
14.73 0.0477822
14.775 0.0664448
14.82 0.0670311
14.865 0.097425
14.91 0.0271306
14.955 0.0181351
15 0.0629934
15.045 0.0452226
15.09 -0.0144512
15.135 0.00492696
15.18 0.0653255
15.225 0.0808787
15.27 0.0252772
15.315 0.082051
15.36 0.0392865
15.405 0.0369731
15.45 0.0603237
15.495 0.0183386
15.54 0.036208
15.585 0.046743
15.63 0.0508009
15.675 0.0258899
15.72 0.0586714
15.765 0.0655306
15.81 0.0794184
15.855 0.0452517
15.9 0.0159861
15.945 0.0322898
15.99 0.104702
16.035 0.0413151
16.08 0.00362205
16.125 0.024241
16.17 0.0784349
16.215 0.064662
16.26 0.0270651
16.305 0.0260381
16.35 -0.00747632
16.395 0.0523807
16.44 0.0475837
16.485 0.0913313
16.53 0.0816892
16.575 0.022203
16.62 0.062379
16.665 0.0418484
16.71 0.0177395
16.755 -0.0267044
16.8 0.0225012
16.845 0.0547156
16.89 0.10761
16.935 0.0914123
16.98 0.0300222
17.025 0.0226262
17.07 0.0423345
17.115 0.0880271
17.16 0.0947423
17.205 -0.0140181
17.25 0.000848402
17.295 0.0470573
17.34 0.0709919
17.385 0.0468923
17.43 0.0399516
17.475 -0.0118442
17.52 0.0959805
17.565 0.0300334
17.61 0.066685
17.655 0.0987053
17.7 0.0512186
17.745 0.0543748
17.79 0.0995102
17.835 0.0674233
17.88 0.0878006
17.925 0.0580462
17.97 0.0649367
18.015 0.0611819
18.06 0.0838753
18.105 0.0434957
18.15 0.0317536
18.195 0.0470082
18.24 0.0815349
18.285 0.0920299
18.33 0.0661254
18.375 0.0871103
18.42 0.1465
18.465 0.20765
18.51 0.183156
18.555 0.120011
18.6 0.204339
18.645 0.0969306
18.69 0.0872144
18.735 0.0486555
18.78 0.0591608
18.825 0.0425266
18.87 0.090597
18.915 0.0733894
18.96 0.0111982
19.005 0.0706815
19.05 0.0723342
19.095 0.0687246
19.14 0.0740319
19.185 0.0451109
19.23 0.0521881
19.275 0.124451
19.32 0.109277
19.365 0.0270537
19.41 0.0785026
19.455 0.0694507
19.5 0.00565323
19.545 0.0162013
19.59 0.0524338
19.635 0.0202092
19.68 0.0913895
19.725 0.0749673
19.77 0.0410195
19.815 -0.00446911
19.86 0.0260578
19.905 0.0192355
19.95 0.0935913
19.995 0.0699118
20.04 -0.0097958
20.085 0.0541
20.13 0.0662091
20.175 0.0299798
20.22 0.104534
20.265 0.056165
20.31 0.0405242
20.355 0.0590882
20.4 0.0360839
20.445 0.0220476
20.49 0.0342338
20.535 0.0108802
20.58 0.059684
20.625 0.0460598
20.67 0.0653407
20.715 0.0210366
20.76 0.0885937
20.805 -0.00425222
20.85 0.0709875
20.895 0.0815608
20.94 0.0415959
20.985 0.0350756
21.03 0.0262103
21.075 0.0653857
21.12 0.0477945
21.165 -0.000315239
21.21 0.0537431
21.255 -0.00990061
21.3 0.0237558
21.345 0.0721773
21.39 0.0917801
21.435 0.0690962
21.48 0.0161181
21.525 0.00148094
21.57 0.0810786
21.615 0.0607047
21.66 0.0796652
21.705 0.0714154
21.75 0.102567
21.795 0.0213192
21.84 0.017953
21.885 0.0466806
21.93 0.0470696
21.975 0.0547662
22.02 0.0354324
22.065 -0.0147093
22.11 -0.0236731
22.155 0.0623766
22.2 0.0652017
22.245 0.0790598
22.29 0.0573159
22.335 0.0694984
22.38 0.0429497
22.425 0.0399273
22.47 0.0457899
22.515 0.0413545
22.56 0.00787958
22.605 0.020588
22.65 -0.00592795
22.695 0.0854096
22.74 0.032577
22.785 0.068979
22.83 0.0306023
22.875 0.0675673
22.92 0.0501008
22.965 0.036545
23.01 0.00660662
23.055 0.0542755
23.1 0.0343408
23.145 0.0549261
23.19 -0.0060568
23.235 0.035487
23.28 0.0225085
23.325 0.0571094
23.37 0.0634647
23.415 0.171245
23.46 0.241521
23.505 0.401489
23.55 0.426556
23.595 0.442
23.64 0.281927
23.685 0.163771
23.73 0.0804722
23.775 0.0452248
23.82 0.0298882
23.865 0.055544
23.91 0.0169811
23.955 0.0410251
24 0.0481359
24.045 0.0123291
24.09 -0.00170994
24.135 0.0236948
24.18 0.0355324
24.225 -0.00294365
24.27 0.074158
24.315 0.0508921
24.36 0.0902848
24.405 0.0687112
24.45 0.0141656
24.495 0.0415008
24.54 0.0925528
24.585 0.0194412
24.63 0.0229561
24.675 0.0507518
24.72 0.0572206
24.765 0.0477136
24.81 0.0386702
24.855 0.055503
24.9 0.0155991
24.945 0.0237102
24.99 0.072175
25.035 0.0374446
25.08 0.10742
25.125 0.188584
25.17 0.16247
25.215 0.222587
25.26 0.24785
25.305 0.184202
25.35 0.133602
25.395 0.0550899
25.44 0.101174
25.485 0.0469345
25.53 0.0732443
25.575 0.0599987
25.62 0.0481889
25.665 -0.0016508
25.71 -0.0250571
25.755 0.0654621
25.8 0.030186
25.845 0.0811812
25.89 0.0521112
25.935 0.0661193
25.98 0.0715003
26.025 0.0212109
26.07 0.033454
26.115 0.0595431
26.16 0.0505137
26.205 0.0176479
26.25 0.0766328
26.295 0.0245867
26.34 0.0352303
26.385 0.0749991
26.43 -0.00433682
26.475 0.0295541
26.52 0.0388163
26.565 0.0201922
26.61 0.0569903
26.655 0.00248694
26.7 0.0153031
26.745 0.0317037
26.79 0.0594146
26.835 0.0597753
26.88 0.0313839
26.925 0.00459781
26.97 0.0337889
27.015 -0.00752726
27.06 0.0438602
27.105 0.0418197
27.15 0.0401951
27.195 0.0580911
27.24 0.0391298
27.285 0.0687124
27.33 0.0563702
27.375 -0.00579111
27.42 0.0429689
27.465 0.026893
27.51 0.0876877
27.555 0.0482816
27.6 0.0179562
27.645 0.0262559
27.69 0.037852
27.735 0.0208034
27.78 0.000372878
27.825 0.0113834
27.87 0.0705051
27.915 0.0837345
27.96 0.0671052
28.005 0.0236215
28.05 0.0551456
28.095 -0.000451987
28.14 0.0277514
28.185 0.0272123
28.23 0.0470359
28.275 0.0957398
28.32 0.0544126
28.365 0.00495481
28.41 0.043994
28.455 0.0900338
28.5 0.0450492
28.545 0.101599
28.59 0.0956279
28.635 0.217718
28.68 0.295646
28.725 0.316443
28.77 0.342745
28.815 0.255642
28.86 0.19212
28.905 0.1328
28.95 0.092113
28.995 0.0668051
29.04 0.0379892
29.085 0.0546636
29.13 0.0251137
29.175 0.0490344
29.22 0.02357
29.265 0.0399184
29.31 0.0819132
29.355 0.0497569
29.4 0.0184031
29.445 0.0536285
29.49 0.0575864
29.535 0.00852779
29.58 0.0960839
29.625 0.0912057
29.67 0.0927906
29.715 0.0466812
29.76 0.113549
29.805 0.185426
29.85 0.355111
29.895 0.428655
29.94 0.813919
29.985 1.36069
30.03 2.12718
30.075 3.00518
30.12 3.31068
30.165 3.07859
30.21 2.11171
30.255 1.2494
30.3 0.657686
30.345 0.351221
30.39 0.185644
30.435 0.117324
30.48 0.0479845
30.525 0.0717016
30.57 0.0183871
30.615 0.0355751
30.66 -0.02457
30.705 0.02398
30.75 0.0425673
30.795 0.000589318
30.84 0.0192388
30.885 0.0214266
30.93 0.0204796
30.975 0.00465616
31.02 0.0500915
31.065 0.0513954
31.11 0.0303806
31.155 0.0527827
31.2 0.0142147
31.245 0.0402008
31.29 0.00693541
31.335 0.0340646
31.38 0.014478
31.425 0.0279409
31.47 0.00299416
31.515 0.0113532
31.56 0.0202855
31.605 0.00427456
31.65 0.0158295
31.695 0.01986
31.74 0.0530726
31.785 0.0296655
31.83 -0.00812585
31.875 0.0201278
31.92 -0.00638341
31.965 0.0328542
32.01 -0.0117128
32.055 0.0231461
32.1 0.0206415
32.145 0.0404633
32.19 0.0153514
32.235 0.027095
32.28 0.0310331
32.325 0.0193754
32.37 0.0143079
32.415 0.0148813
32.46 0.0287198
32.505 0.033128
32.55 0.0143726
32.595 0.0480309
32.64 0.0125119
32.685 0.0117735
32.73 0.0116409
32.775 0.0325328
32.82 -0.0207639
32.865 0.0244445
32.91 0.0305238
32.955 0.0477307
33 0.0311936
33.045 0.0191735
33.09 0.026391
33.135 0.00959197
33.18 0.0155064
33.225 0.011932
33.27 0.0274346
33.315 0.00279638
33.36 0.0601125
33.405 0.021584
33.45 -0.0137845
33.495 0.0174679
33.54 0.00960904
33.585 0.0114334
33.63 0.00581671
33.675 -0.00046077
33.72 -0.00763348
33.765 -0.0186603
33.81 -0.0132583
33.855 0.00980629
33.9 -0.0100335
33.945 -0.00533103
33.99 0.0142979
34.035 0.021984
34.08 0.00578704
34.125 -0.0066184
34.17 -0.0015687
34.215 0.00888489
34.26 0.0217136
34.305 0.0117056
34.35 0.017911
34.395 0.0334794
34.44 0.0643517
34.485 0.0869044
34.53 0.145653
34.575 0.265931
34.62 0.427453
34.665 0.627271
34.71 0.92451
34.755 1.05704
34.8 1.14421
34.845 0.996299
34.89 0.786056
34.935 0.515874
34.98 0.283782
35.025 0.187875
35.07 0.0963973
35.115 0.0586145
35.16 0.0304736
35.205 0.0356868
35.25 -0.00116652
35.295 -0.00165216
35.34 0.0103302
35.385 0.0189565
35.43 0.00203608
35.475 -0.010234
35.52 -0.0165991
35.565 0.0320457
35.61 -0.0116254
35.655 0.0036059
35.7 -0.000325182
35.745 0.00678321
35.79 0.0075
35.835 0.00634162
35.88 -0.0150028
35.925 0.0492102
35.97 0.0667274
36.015 0.147651
36.06 0.201777
36.105 0.312085
36.15 0.523711
36.195 0.794333
36.24 1.22593
36.285 1.59949
36.33 1.73961
36.375 1.65493
36.42 1.32514
36.465 0.849201
36.51 0.482626
36.555 0.26741
36.6 0.131748
36.645 0.0569902
36.69 0.0258894
36.735 0.0282329
36.78 0.00111788
36.825 -0.00108637
36.87 -0.00283029
36.915 0.0183119
36.96 0.00436039
37.005 0.0188893
37.05 0.0335727
37.095 0.0224172
37.14 0.0926888
37.185 0.0972932
37.23 0.189693
37.275 0.282331
37.32 0.455477
37.365 0.660977
37.41 0.855794
37.455 1.04897
37.5 1.11578
37.545 0.996411
37.59 0.776416
37.635 0.620687
37.68 0.363476
37.725 0.209336
37.77 0.125203
37.815 0.0672468
37.86 0.03856
37.905 0.0355527
37.95 0.0128762
37.995 -0.00101214
38.04 0.00529238
38.085 -0.0129619
38.13 0.0265518
38.175 0.00799703
38.22 0.0103436
38.265 -0.000986197
38.31 0.0452009
38.355 0.0775502
38.4 0.0706681
38.445 0.0923484
38.49 0.146262
38.535 0.180693
38.58 0.2355
38.625 0.216446
38.67 0.172995
38.715 0.147889
38.76 0.0848113
38.805 0.0615971
38.85 0.0208671
38.895 0.0443117
38.94 0.015759
38.985 0.00387676
39.03 -0.0219299
39.075 0.0296391
39.12 0.0360818
39.165 -6.17936e-05
39.21 0.00734667
39.255 0.0148355
39.3 0.0311807
39.345 0.0232505
39.39 0.0188894
39.435 -0.00359833
39.48 -0.000565552
39.525 0.00616742
39.57 0.0137864
39.615 0.0130482
39.66 0.0144062
39.705 0.0112677
39.75 -0.00946099
39.795 0.00156031
39.84 -0.00416456
39.885 -0.00520753
39.93 0.0259877
39.975 0.0185293
40.02 0.0363828
40.065 0.0328007
40.11 0.00659114
40.155 -0.00555437
40.2 0.032803
40.245 0.0278297
40.29 0.00716956
40.335 0.00390074
40.38 0.0188263
40.425 0.00916039
40.47 0.00316745
40.515 0.0231122
40.56 0.0231597
40.605 0.0134851
40.65 0.0401381
40.695 0.0499249
40.74 0.0749927
40.785 0.080497
40.83 0.0830687
40.875 0.0365502
40.92 0.0294182
40.965 0.019322
41.01 0.000833441
41.055 0.0318693
41.1 0.0277354
41.145 0.0683399
41.19 0.0340179
41.235 0.0514017
41.28 0.074408
41.325 0.124583
41.37 0.165078
41.415 0.199874
41.46 0.205986
41.505 0.182518
41.55 0.139614
41.595 0.0571182
41.64 0.0464223
41.685 -0.0110467
41.73 0.0163164
41.775 0.0144418
41.82 0.00724159
41.865 -0.0152058
41.91 0.00850132
41.955 0.0211166
42 0.0157884
42.045 0.00874429
42.09 0.00278481
42.135 0.0316341
42.18 0.00439995
42.225 0.0255904
42.27 0.00496087
42.315 -0.013269
42.36 0.0194601
42.405 0.0221562
42.45 0.0458892
42.495 0.0399232
42.54 0.0382484
42.585 -0.0125234
42.63 0.025718
42.675 0.00537499
42.72 -0.00194593
42.765 0.0084619
42.81 0.0125376
42.855 0.0292136
42.9 0.0295893
42.945 -0.010772
42.99 -0.0110263
43.035 0.00580468
43.08 -0.0187704
43.125 0.0288427
43.17 -0.00326281
43.215 -0.0126749
43.26 0.0206052
43.305 0.0210599
43.35 0.0507112
43.395 -0.00962313
43.44 0.00547193
43.485 0.00930255
43.53 0.0196853
43.575 -0.00748224
43.62 0.00723062
43.665 0.01727
43.71 0.0164132
43.755 0.00144175
43.8 -0.0065302
43.845 0.0207912
43.89 0.00575329
43.935 0.00557987
43.98 0.023614
44.025 -0.0132418
44.07 0.0334477
44.115 -0.00897224
44.16 0.048851
44.205 -0.00649641
44.25 0.0127661
44.295 0.00738451
44.34 0.0501937
44.385 0.0115543
44.43 0.0689106
44.475 0.0671988
44.52 0.0668749
44.565 0.0783972
44.61 0.131753
44.655 0.195219
44.7 0.246377
44.745 0.269636
44.79 0.319884
44.835 0.267962
44.88 0.213245
44.925 0.192297
44.97 0.0825271
45.015 0.0770829
45.06 0.0432165
45.105 0.0349212
45.15 0.0252126
45.195 0.00892014
45.24 0.0238395
45.285 0.0370286
45.33 -0.00419261
45.375 0.00744547
45.42 0.0204201
45.465 0.021227
45.51 0.013199
45.555 0.0318106
45.6 0.00835904
45.645 -0.0128998
45.69 0.0235077
45.735 -0.00358875
45.78 -0.00236612
45.825 0.0459337
45.87 -0.0137865
45.915 0.0317667
45.96 -0.0128631
46.005 0.000494843
46.05 0.0034518
46.095 0.0418282
46.14 -0.0184446
46.185 -0.00122452
46.23 0.0271575
46.275 0.0206264
46.32 0.0110055
46.365 -0.0124928
46.41 0.00370091
46.455 0.00400871
46.5 -0.0140622
46.545 0.0116987
46.59 0.0150265
46.635 -0.00360641
46.68 0.0100586
46.725 -0.00176694
46.77 0.0101713
46.815 -0.00956148
46.86 0.003804
46.905 -0.0114072
46.95 0.00686435
46.995 0.0213532
47.04 -0.00668208
47.085 0.00464249
47.13 -0.00843053
47.175 0.0162871
47.22 0.0400601
47.265 0.046508
47.31 0.0540206
47.355 0.054168
47.4 0.0481912
47.445 0.103495
47.49 0.133237
47.535 0.145251
47.58 0.190328
47.625 0.204289
47.67 0.233819
47.715 0.226842
47.76 0.214032
47.805 0.212726
47.85 0.264039
47.895 0.294507
47.94 0.391317
47.985 0.505681
48.03 0.651103
48.075 0.777567
48.12 0.973475
48.165 1.1778
48.21 1.28392
48.255 1.27234
48.3 1.11886
48.345 0.896796
48.39 0.623739
48.435 0.360149
48.48 0.225499
48.525 0.128841
48.57 0.0899864
48.615 0.0565762
48.66 0.0391702
48.705 0.0532459
48.75 0.0675828
48.795 0.0601081
48.84 0.0845599
48.885 0.107271
48.93 0.122939
48.975 0.176263
49.02 0.227421
49.065 0.247696
49.11 0.275382
49.155 0.259306
49.2 0.233679
49.245 0.206949
49.29 0.161246
49.335 0.120309
49.38 0.0823078
49.425 0.03706
49.47 -0.00375869
49.515 0.0156259
49.56 0.0192413
49.605 0.00673423
49.65 -0.017249
49.695 0.0156753
49.74 0.00873318
49.785 0.0170654
49.83 0.0441126
49.875 0.0516641
49.92 0.0766277
49.965 0.141473
50.01 0.19562
50.055 0.255036
50.1 0.339261
50.145 0.410121
50.19 0.54829
50.235 0.665033
50.28 0.849059
50.325 0.885903
50.37 0.927655
50.415 0.810298
50.46 0.618086
50.505 0.420906
50.55 0.261784
50.595 0.158148
50.64 0.0749954
50.685 0.0246743
50.73 0.0291168
50.775 0.0113971
50.82 0.011259
50.865 -0.00745125
50.91 0.00104704
50.955 0.019352
51 0.0134749
51.045 -0.0203022
51.09 0.00873269
51.135 0.00551351
51.18 0.0041062
51.225 0.00229838
51.27 0.00102019
51.315 -0.00128633
51.36 0.0155853
51.405 0.0130644
51.45 0.00770633
51.495 0.00857393
51.54 0.040689
51.585 0.0436327
51.63 0.0685121
51.675 0.101186
51.72 0.0821598
51.765 0.121772
51.81 0.176195
51.855 0.188696
51.9 0.232681
51.945 0.26341
51.99 0.294547
52.035 0.306511
52.08 0.276848
52.125 0.246923
52.17 0.216062
52.215 0.154073
52.26 0.0982762
52.305 0.066697
52.35 0.0338119
52.395 0.0104875
52.44 0.0141358
52.485 -0.00958205
52.53 0.00922832
52.575 -0.000775956
52.62 0.00111223
52.665 -0.00465278
52.71 0.0172509
52.755 0.0248661
52.8 0.0143056
52.845 0.00430469
52.89 0.0312819
52.935 -0.00814746
52.98 -0.0130562
53.025 -0.00152961
53.07 0.000160748
53.115 -0.00168166
53.16 0.0028625
53.205 0.0074762
53.25 0.00447516
53.295 0.000752505
53.34 0.0152179
53.385 0.0128922
53.43 0.0282701
53.475 0.0430083
53.52 0.0607536
53.565 0.0617424
53.61 0.104637
53.655 0.114216
53.7 0.11901
53.745 0.137055
53.79 0.176536
53.835 0.19899
53.88 0.167311
53.925 0.163495
53.97 0.129934
54.015 0.119966
54.06 0.0806313
54.105 0.0329787
54.15 0.0549651
54.195 0.0242158
54.24 0.00950931
54.285 -0.0101396
54.33 0.0116213
54.375 0.00612668
54.42 0.00614534
54.465 0.0135213
54.51 -0.0124582
54.555 -0.0116005
54.6 0.0186116
54.645 0.00363765
54.69 -0.0148303
54.735 0.0202557
54.78 0.0100736
54.825 0.00248244
54.87 0.0357694
54.915 0.00225358
54.96 0.0144044
55.005 0.0226848
55.05 0.0410923
55.095 0.0427321
55.14 0.056639
55.185 0.0316009
55.23 0.0376274
55.275 0.0070241
55.32 0.0270809
55.365 0.0114693
55.41 0.0271687
55.455 -0.00238458
55.5 0.017384
55.545 0.0184478
55.59 0.0102463
55.635 -0.000833221
55.68 -0.00789361
55.725 0.00911189
55.77 0.00565866
55.815 0.00508964
55.86 0.00212793
55.905 -0.006577
55.95 0.00252375
55.995 0.022144
56.04 0.0158207
56.085 0.0203525
56.13 0.00910779
56.175 0.00200445
56.22 0.00612742
56.265 0.00384205
56.31 0.0241662
56.355 0.00446412
56.4 0.0194891
56.445 0.0103439
56.49 0.0136528
56.535 0.0279416
56.58 0.0279929
56.625 0.0128073
56.67 0.019579
56.715 -0.0142899
56.76 0.0258024
56.805 0.0471168
56.85 0.0505342
56.895 0.0386224
56.94 0.0859229
56.985 0.0637903
57.03 0.067608
57.075 0.0756316
57.12 0.0536882
57.165 0.0764365
57.21 0.0636508
57.255 0.0839644
57.3 0.0539046
57.345 0.0560945
57.39 0.0430941
57.435 0.0429411
57.48 0.0792351
57.525 0.0749698
57.57 0.0700049
57.615 0.148858
57.66 0.140714
57.705 0.164603
57.75 0.173714
57.795 0.233752
57.84 0.318015
57.885 0.374763
57.93 0.37187
57.975 0.352926
58.02 0.369658
58.065 0.312098
58.11 0.267196
58.155 0.202564
58.2 0.143167
58.245 0.126436
58.29 0.0897255
58.335 0.0382915
58.38 0.0472316
58.425 0.00269734
58.47 0.00544949
58.515 0.0255278
58.56 0.0289534
58.605 0.0378451
58.65 0.0038325
58.695 0.0169918
58.74 0.00250745
58.785 0.0295038
58.83 -0.00484147
58.875 0.023128
58.92 0.0365262
58.965 -0.00214786
59.01 0.0218913
59.055 0.0400542
59.1 0.00474863
59.145 0.0260578
59.19 0.00847343
59.235 0.0125864
59.28 0.0137947
59.325 0.0205698
59.37 0.00462076
59.415 0.0409174
59.46 0.0111885
59.505 0.00711154
59.55 0.0263167
59.595 0.0130257
59.64 0.0182215
59.685 0.02545
59.73 0.0177507
59.775 0.0185209
59.82 -0.00695692
59.865 0.0248833
59.91 -0.00599546
59.955 -0.0171482
60 0.0210653
60.045 0.0309622
60.09 0.00117367
60.135 0.0280794
60.18 0.00383116
60.225 0.0334677
60.27 0.0105287
60.315 0.0416908
60.36 0.00558645
60.405 0.0357643
60.45 0.00321808
60.495 0.0130391
60.54 0.00508135
60.585 0.0284577
60.63 0.00561428
60.675 0.0191296
60.72 0.0126299
60.765 0.0113269
60.81 0.0237241
60.855 0.0190094
60.9 0.00765847
60.945 0.0206976
60.99 0.0143872
61.035 0.0235042
61.08 -0.00330885
61.125 -0.00135397
61.17 0.0197707
61.215 0.0282416
61.26 0.0404983
61.305 0.0149076
61.35 0.0411984
61.395 0.0185842
61.44 0.0647987
61.485 0.0844838
61.53 0.0769929
61.575 0.0862886
61.62 0.0791166
61.665 0.114455
61.71 0.104348
61.755 0.140598
61.8 0.156001
61.845 0.164591
61.89 0.166038
61.935 0.175945
61.98 0.173927
62.025 0.143634
62.07 0.103605
62.115 0.0880617
62.16 0.0705515
62.205 0.104637
62.25 0.0844264
62.295 0.0968128
62.34 0.0746489
62.385 0.108875
62.43 0.155896
62.475 0.132629
62.52 0.168873
62.565 0.201
62.61 0.198762
62.655 0.182156
62.7 0.177122
62.745 0.192244
62.79 0.162794
62.835 0.147212
62.88 0.11005
62.925 0.0522671
62.97 0.0356766
63.015 0.052688
63.06 0.0350224
63.105 0.0315886
63.15 0.0253822
63.195 0.0445574
63.24 0.0219521
63.285 0.0179241
63.33 0.0145726
63.375 -0.00683165
63.42 0.00866306
63.465 0.00938456
63.51 0.0269708
63.555 0.0359116
63.6 0.011614
63.645 0.00629375
63.69 0.00357881
63.735 0.0248045
63.78 -0.00125857
63.825 0.00830805
63.87 0.0144278
63.915 0.0303807
63.96 0.0234311
64.005 -0.0169397
64.05 -0.00566327
64.095 0.0194884
64.14 0.0102317
64.185 0.021877
64.23 0.0286
64.275 0.0280975
64.32 0.00343788
64.365 0.0271561
64.41 0.0204045
64.455 0.0132207
64.5 0.0474083
64.545 0.0405995
64.59 0.036801
64.635 0.0490938
64.68 0.0664236
64.725 0.108535
64.77 0.0741436
64.815 0.115677
64.86 0.113467
64.905 0.0923761
64.95 0.122446
64.995 0.106399
65.04 0.105652
65.085 0.125927
65.13 0.108594
65.175 0.108787
65.22 0.0933554
65.265 0.0759899
65.31 0.0558718
65.355 0.0488635
65.4 0.0454766
65.445 0.0471843
65.49 0.0441141
65.535 0.0484756
65.58 0.0421141
65.625 0.0252561
65.67 0.0315812
65.715 0.0438652
65.76 0.0172638
65.805 0.00323232
65.85 0.0221887
65.895 0.00649951
65.94 0.00520233
65.985 0.0222531
66.03 -0.00335814
66.075 0.0119035
66.12 0.016069
66.165 0.0105147
66.21 0.0073341
66.255 0.0124312
66.3 0.0264209
66.345 0.0121317
66.39 0.0126855
66.435 -0.00249733
66.48 -0.00253968
66.525 0.000388587
66.57 0.0208468
66.615 0.026228
66.66 -0.00424773
66.705 0.00865408
66.75 0.0138568
66.795 0.0359918
66.84 0.0247901
66.885 0.00675999
66.93 0.00928451
66.975 -0.0038687
67.02 0.00144992
67.065 0.0122498
67.11 0.00861543
67.155 0.0186763
67.2 -0.00786867
67.245 0.00578611
67.29 0.0109747
67.335 0.0135202
67.38 -0.00361454
67.425 0.0257692
67.47 0.0147373
67.515 0.0125584
67.56 0.0117127
67.605 0.0483788
67.65 0.0456235
67.695 0.0273544
67.74 0.0822582
67.785 0.0456799
67.83 0.0520409
67.875 0.074303
67.92 0.0999445
67.965 0.0668167
68.01 0.0418056
68.055 0.0248701
68.1 0.0611243
68.145 0.041258
68.19 0.040605
68.235 0.02065
68.28 0.0133832
68.325 0.00674984
68.37 0.0291646
68.415 0.0131355
68.46 0.0163429
68.505 0.00899812
68.55 0.0190144
68.595 0.0158124
68.64 -0.0107115
68.685 -0.00221133
68.73 0.00924753
68.775 -0.0105347
68.82 0.0164937
68.865 0.0104894
68.91 0.0168675
68.955 0.0284435
69 -0.0113045
69.045 0.000345034
69.09 0.0135031
69.135 0.000919831
69.18 0.00201751
69.225 0.00403901
69.27 -0.00629694
69.315 -0.00169274
69.36 0.00633721
69.405 0.0312499
69.45 -0.0116915
69.495 0.000414056
69.54 0.0164912
69.585 -0.00427119
69.63 0.0124239
69.675 0.0251477
69.72 0.0184149
69.765 0.0400374
69.81 0.0204475
69.855 0.0298666
69.9 0.0443769
69.945 0.0399919
69.99 0.0363106
70.035 0.0378206
70.08 0.0432115
70.125 0.038042
70.17 0.0229534
70.215 0.0316903
70.26 0.0402863
70.305 0.020655
70.35 0.0258524
70.395 0.0265988
70.44 0.0185187
70.485 0.0179091
70.53 0.0206522
70.575 0.0264726
70.62 0.0217223
70.665 0.0132381
70.71 0.00492545
70.755 0.0359507
70.8 0.0351016
70.845 0.0501496
70.89 0.0760125
70.935 0.088484
70.98 0.106531
71.025 0.0934804
71.07 0.158341
71.115 0.190319
71.16 0.248511
71.205 0.263323
71.25 0.281677
71.295 0.235776
71.34 0.249182
71.385 0.253663
71.43 0.217359
71.475 0.184831
71.52 0.175782
71.565 0.120904
71.61 0.102028
71.655 0.0854252
71.7 0.0537365
71.745 0.0357339
71.79 0.0256183
71.835 0.0171841
71.88 -0.00408711
71.925 0.0199852
71.97 0.00507235
72.015 -0.0168716
72.06 0.00215151
72.105 0.00579407
72.15 0.0133426
72.195 0.0188041
72.24 0.0224867
72.285 -0.00045
72.33 0.0224958
72.375 0.0158724
72.42 0.00183028
72.465 0.0355528
72.51 0.00516069
72.555 0.0329753
72.6 -0.00161075
72.645 0.0389783
72.69 0.0153772
72.735 -0.0164644
72.78 0.02184
72.825 0.0204109
72.87 0.0245508
72.915 0.0219874
72.96 0.032209
73.005 0.0392583
73.05 0.0561661
73.095 0.0469282
73.14 0.0437557
73.185 0.0472308
73.23 0.0457731
73.275 0.0677425
73.32 0.0717474
73.365 0.103494
73.41 0.0782801
73.455 0.0787259
73.5 0.0835593
73.545 0.0824452
73.59 0.0707987
73.635 0.0779924
73.68 0.0550015
73.725 0.0518456
73.77 0.0508005
73.815 0.0229247
73.86 0.028829
73.905 0.0488758
73.95 0.0069403
73.995 -0.000275687
74.04 0.0124663
74.085 0.0109445
74.13 0.00883225
74.175 0.00203197
74.22 0.000612139
74.265 0.00857656
74.31 -0.0106169
74.355 -0.00687252
74.4 0.00376048
74.445 -0.0108176
74.49 0.00135537
74.535 -0.000142267
74.58 -0.00331281
74.625 0.000627424
74.67 0.00113631
74.715 -0.0164013
74.73 -0.0164704