File: data/xrd/xy/2019-06-19T14_53_56.517003+00_00_LBL_H9.xy
'Id: "" Comment: "Integrate frame perovskite_03_001.gfrmwith cursor Wedge Cursor #3" Operator: "UC Berkeley" Anode: "Co" Scantype: "TwoTheta" TimePerStep: "400"
13.615 -0.0309372
13.655 0.0123387
13.695 0.030045
13.735 0.0105264
13.775 0.00583853
13.815 -0.0104338
13.855 0.00524691
13.895 0.00584981
13.935 0.0192531
13.975 0.0693808
14.015 0.0374417
14.055 0.00251363
14.095 0.0199619
14.135 0.0325979
14.175 -0.0209922
14.215 0.000117312
14.255 0.00591114
14.295 0.0755449
14.335 0.0338032
14.375 0.0548063
14.415 0.0621792
14.455 0.0135576
14.495 0.017361
14.535 0.0278793
14.575 0.0459538
14.615 0.0590122
14.655 0.0878864
14.695 0.105372
14.735 0.0335089
14.775 0.0756485
14.815 0.0187462
14.855 0.0262048
14.895 0.0562123
14.935 0.0434103
14.975 0.0382272
15.015 0.0797804
15.055 0.0921894
15.095 0.0526566
15.135 0.0233458
15.175 0.027975
15.215 0.0447797
15.255 0.0706111
15.295 0.0625523
15.335 0.00536628
15.375 0.0749045
15.415 0.0265465
15.455 0.0300676
15.495 0.0510333
15.535 0.0774946
15.575 0.0638491
15.615 0.0843052
15.655 0.0804004
15.695 0.0166643
15.735 0.0291993
15.775 0.00816369
15.815 0.0789116
15.855 0.0561091
15.895 0.0425972
15.935 0.0229186
15.975 0.0487231
16.015 0.0287671
16.055 0.0376952
16.095 0.0317424
16.135 -0.00380134
16.175 0.0550284
16.215 0.0518204
16.255 -0.000845968
16.295 0.0112811
16.335 0.0227048
16.375 0.0109923
16.415 0.0464564
16.455 0.0240628
16.495 0.0438139
16.535 0.102281
16.575 0.0343736
16.615 0.0959507
16.655 0.0539754
16.695 0.0600155
16.735 0.0857997
16.775 0.133105
16.815 0.158407
16.855 0.234494
16.895 0.147431
16.935 0.129785
16.975 0.026237
17.015 0.0904872
17.055 0.0747168
17.095 0.0669941
17.135 0.0276538
17.175 0.0426547
17.215 0.0126534
17.255 0.019227
17.295 0.0180606
17.335 0.0450445
17.375 0.0770001
17.415 0.036898
17.455 0.0167172
17.495 0.0553687
17.535 0.0784417
17.575 0.0196371
17.615 0.0465537
17.655 0.0831222
17.695 0.0467754
17.735 0.0486977
17.775 0.0939303
17.815 0.112861
17.855 0.0371815
17.895 0.0825033
17.935 0.0726057
17.975 0.0738619
18.015 0.0960874
18.055 0.107203
18.095 0.0563858
18.135 0.0705796
18.175 0.0345083
18.215 0.100642
18.255 0.0560824
18.295 0.0145434
18.335 0.0532555
18.375 0.0487486
18.415 0.124016
18.455 0.0525251
18.495 0.0671476
18.535 0.0356168
18.575 0.0554691
18.615 0.0385143
18.655 0.0163793
18.695 0.0277537
18.735 0.0539196
18.775 0.0154288
18.815 0.0149369
18.855 0.0560664
18.895 0.071357
18.935 -0.0181289
18.975 0.0426538
19.015 0.0103563
19.055 0.0377365
19.095 0.062441
19.135 0.0303607
19.175 0.0828617
19.215 0.0205906
19.255 0.031176
19.295 0.0540589
19.335 0.0245572
19.375 0.0444236
19.415 0.024566
19.455 0.037699
19.495 0.0112453
19.535 0.0831379
19.575 0.0465535
19.615 0.00507236
19.655 0.073544
19.695 0.0445102
19.735 0.0642797
19.775 0.0219988
19.815 0.0618769
19.855 0.0385142
19.895 0.0181936
19.935 0.0637949
19.975 0.0250675
20.015 0.0229175
20.055 0.0238258
20.095 0.0467947
20.135 0.0755249
20.175 0.00402741
20.215 0.0200839
20.255 0.0196733
20.295 0.0383484
20.335 0.05619
20.375 0.0677142
20.415 0.0638856
20.455 0.0618726
20.495 0.0372926
20.535 0.0700133
20.575 0.0490147
20.615 0.06062
20.655 0.0315848
20.695 0.050078
20.735 0.0681589
20.775 0.0713736
20.815 0.133163
20.855 0.208126
20.895 0.357522
20.935 0.510976
20.975 0.664204
21.015 0.73303
21.055 0.802721
21.095 0.603162
21.135 0.471363
21.175 0.255383
21.215 0.121892
21.255 0.0813644
21.295 0.0628539
21.335 0.0511765
21.375 0.00684854
21.415 0.067317
21.455 0.00892245
21.495 0.0462801
21.535 0.0778429
21.575 0.0253687
21.615 0.074186
21.655 -0.00928122
21.695 0.0676906
21.735 0.0852472
21.775 -0.007492
21.815 0.0231199
21.855 0.0122716
21.895 0.00693877
21.935 0.0726741
21.975 0.0578715
22.015 0.030696
22.055 0.012024
22.095 -0.0244523
22.135 0.032469
22.175 -0.00338138
22.215 -0.0310551
22.255 0.0687625
22.295 0.0594949
22.335 0.0422804
22.375 0.0193523
22.415 -0.0185753
22.455 8.77168e-05
22.495 -0.0137734
22.535 0.0126813
22.575 0.019072
22.615 0.0399407
22.655 -0.000492653
22.695 0.0301248
22.735 -0.00483787
22.775 0.0518037
22.815 0.0365639
22.855 0.00367454
22.895 0.01264
22.935 0.0328305
22.975 0.0407036
23.015 -0.000199114
23.055 0.0811537
23.095 -0.0305268
23.135 0.0237398
23.175 0.0406714
23.215 0.0248307
23.255 0.027674
23.295 -0.00802761
23.335 -0.0179162
23.375 -0.00696965
23.415 -5.78407e-05
23.455 0.0292103
23.495 0.0443055
23.535 0.0101775
23.575 0.0289886
23.615 0.0352521
23.655 0.0154867
23.695 0.0437648
23.735 0.00255787
23.775 0.0304595
23.815 0.00767956
23.855 0.032213
23.895 0.0560554
23.935 0.0469505
23.975 0.119688
24.015 0.265835
24.055 0.283447
24.095 0.235004
24.135 0.184114
24.175 0.135996
24.215 0.103699
24.255 0.157776
24.295 0.0847224
24.335 0.0648237
24.375 0.0298703
24.415 0.0109778
24.455 0.0154399
24.495 0.0151585
24.535 0.0452956
24.575 0.0378114
24.615 0.0111225
24.655 0.029068
24.695 -0.00014795
24.735 0.0205426
24.775 0.0349963
24.815 0.0691274
24.855 0.0243329
24.895 0.0265955
24.935 0.0714219
24.975 0.0906831
25.015 0.147455
25.055 0.252403
25.095 0.506114
25.135 1.01657
25.175 2.13202
25.215 3.16256
25.255 4.34888
25.295 4.72736
25.335 4.0396
25.375 2.92116
25.415 1.64897
25.455 0.810702
25.495 0.321558
25.535 0.136696
25.575 0.0480155
25.615 0.0787393
25.655 0.0483657
25.695 0.0638314
25.735 0.0176601
25.775 0.0292199
25.815 0.0383865
25.855 0.045396
25.895 0.0371221
25.935 0.0403672
25.975 0.0398267
26.015 -0.00631928
26.055 0.0394963
26.095 0.0103348
26.135 0.020082
26.175 0.0333651
26.215 0.0939179
26.255 0.0452969
26.295 0.0989892
26.335 0.103395
26.375 0.149933
26.415 0.155319
26.455 0.0905409
26.495 0.0833388
26.535 0.109083
26.575 0.0518566
26.615 0.03343
26.655 0.0380971
26.695 0.0358435
26.735 0.025391
26.775 0.0117608
26.815 0.0353562
26.855 0.0339699
26.895 0.0402447
26.935 0.0511137
26.975 0.0319563
27.015 0.146455
27.055 0.120917
27.095 0.0789522
27.135 0.0135723
27.175 0.0302688
27.215 -0.0163932
27.255 0.0236742
27.295 -0.015689
27.335 0.0997009
27.375 0.0655572
27.415 0.082511
27.455 0.0630552
27.495 0.0221959
27.535 0.0111289
27.575 0.0161607
27.615 0.00556178
27.655 0.0376075
27.695 0.13095
27.735 0.186403
27.775 0.246975
27.815 0.337056
27.855 0.468466
27.895 0.639861
27.935 0.607994
27.975 0.486733
28.015 0.218361
28.055 0.106018
28.095 0.0261152
28.135 0.000124441
28.175 0.0334956
28.215 0.032602
28.255 0.0191925
28.295 0.061042
28.335 0.0450379
28.375 0.0647313
28.415 0.00691928
28.455 0.0401591
28.495 0.0403133
28.535 0.00147857
28.575 0.0236136
28.615 0.00998202
28.655 0.0949642
28.695 0.0936037
28.735 0.0770256
28.775 0.0655864
28.815 0.100796
28.855 0.0215344
28.895 0.112606
28.935 0.0631209
28.975 0.0522658
29.015 0.0508369
29.055 0.118485
29.095 0.0774604
29.135 0.0691518
29.175 0.0621761
29.215 0.136802
29.255 0.118916
29.295 0.155588
29.335 0.261212
29.375 0.429118
29.415 1.04372
29.455 2.4111
29.495 4.69331
29.535 8.07893
29.575 11.1423
29.615 12.6252
29.655 11.3923
29.695 8.06363
29.735 4.44974
29.775 2.00964
29.815 0.781159
29.855 0.347211
29.895 0.206935
29.935 0.16297
29.975 0.12107
30.015 0.0878418
30.055 0.0855766
30.095 0.0625421
30.135 0.0547022
30.175 0.0547861
30.215 0.0548337
30.255 0.0785744
30.295 0.0544323
30.335 0.0554314
30.375 0.0600993
30.415 0.100905
30.455 0.0956354
30.495 0.118409
30.535 0.111672
30.575 0.0719814
30.615 0.034032
30.655 -0.0297712
30.695 -0.00984893
30.735 0.063801
30.775 0.077297
30.815 0.0601364
30.855 0.00285481
30.895 0.00579155
30.935 0.0223439
30.975 0.00973155
31.015 -0.0256128
31.055 -0.0123852
31.095 -0.0081718
31.135 0.022618
31.175 -0.0226683
31.215 -0.00481678
31.255 -0.00545195
31.295 0.00982612
31.335 0.00935758
31.375 -0.00518043
31.415 0.0229934
31.455 0.0159977
31.495 0.0418947
31.535 -0.0128281
31.575 0.00246287
31.615 -0.00968305
31.655 0.047611
31.695 0.0155214
31.735 0.133447
31.775 0.247204
31.815 0.446894
31.855 0.5484
31.895 0.606696
31.935 0.443102
31.975 0.265907
32.015 0.177062
32.055 0.0949773
32.095 0.0577052
32.135 0.0756361
32.175 0.176618
32.215 0.375372
32.255 0.657876
32.295 0.908073
32.335 0.921892
32.375 0.791128
32.415 0.527988
32.455 0.289309
32.495 0.140085
32.535 0.0057859
32.575 0.023167
32.615 0.0147601
32.655 -0.0108909
32.695 0.0118368
32.735 0.00742074
32.775 0.0083397
32.815 0.0135294
32.855 -0.0226697
32.895 0.0172574
32.935 -0.00783653
32.975 -0.0142589
33.015 0.0209728
33.055 0.0599771
33.095 0.0921687
33.135 0.0750101
33.175 0.086712
33.215 0.0620235
33.255 0.0187048
33.295 0.0403642
33.335 0.0142785
33.375 0.0193692
33.415 0.0271092
33.455 0.0295827
33.495 0.0634721
33.535 0.0484059
33.575 0.112344
33.615 0.101179
33.655 0.200147
33.695 0.304076
33.735 0.607076
33.775 1.1799
33.815 2.46817
33.855 4.27709
33.895 5.91274
33.935 6.40535
33.975 5.28622
34.015 3.77278
34.055 2.24005
34.095 1.17851
34.135 0.668928
34.175 0.412402
34.215 0.265193
34.255 0.185853
34.295 0.117237
34.335 0.107303
34.375 0.037949
34.415 0.0280087
34.455 0.00482913
34.495 0.0183786
34.535 0.0116875
34.575 0.00528459
34.615 -0.0159732
34.655 0.000548755
34.695 0.00119013
34.735 -0.0193342
34.775 0.0270761
34.815 0.0695697
34.855 0.116503
34.895 0.166822
34.935 0.192237
34.975 0.179028
35.015 0.135562
35.055 0.0511087
35.095 0.0229977
35.135 0.00287711
35.175 -0.0110557
35.215 0.00171074
35.255 0.00487721
35.295 0.00237268
35.335 0.0186932
35.375 0.00223897
35.415 -0.024283
35.455 0.00174201
35.495 0.0153515
35.535 0.0189553
35.575 -0.0138465
35.615 0.00573763
35.655 -0.00292156
35.695 -0.00699253
35.735 -0.000401874
35.775 0.0460017
35.815 0.0595305
35.855 0.139669
35.895 0.245938
35.935 0.394731
35.975 0.544101
36.015 0.742856
36.055 0.882306
36.095 0.976407
36.135 1.02924
36.175 0.827956
36.215 0.602524
36.255 0.384917
36.295 0.219409
36.335 0.108495
36.375 0.0578587
36.415 0.0177882
36.455 -0.00233302
36.495 0.00371072
36.535 -0.0165555
36.575 0.0034832
36.615 -0.00138788
36.655 -0.0166975
36.695 -0.027363
36.735 -0.0122079
36.775 0.00834935
36.815 0.00145704
36.855 0.012209
36.895 0.0175882
36.935 0.0053452
36.975 0.0275575
37.015 -0.00343762
37.055 -0.00717523
37.095 0.000670061
37.135 -0.0244249
37.175 -0.00707022
37.215 0.0108447
37.255 0.0127778
37.295 0.0224796
37.335 0.0213724
37.375 0.0499748
37.415 0.0446646
37.455 0.0483565
37.495 0.0472478
37.535 0.0362172
37.575 0.0377283
37.615 0.0149363
37.655 0.00266648
37.695 0.0170783
37.735 0.0119567
37.775 0.00368407
37.815 0.0380426
37.855 0.0423403
37.895 0.103706
37.935 0.161117
37.975 0.186855
38.015 0.203083
38.055 0.200724
38.095 0.268317
38.135 0.37274
38.175 0.687979
38.215 1.1866
38.255 1.90097
38.295 2.5317
38.335 2.63155
38.375 2.26371
38.415 1.72962
38.455 1.07945
38.495 0.630484
38.535 0.369755
38.575 0.242877
38.615 0.229894
38.655 0.201341
38.695 0.215923
38.735 0.199784
38.775 0.151163
38.815 0.10454
38.855 0.112105
38.895 0.0835629
38.935 0.0756073
38.975 0.0497996
39.015 0.0398254
39.055 0.0490607
39.095 0.024543
39.135 0.0762983
39.175 0.100919
39.215 0.096377
39.255 0.11904
39.295 0.0482037
39.335 0.036332
39.375 0.00914587
39.415 -0.0188214
39.455 -0.00122574
39.495 -0.0136547
39.535 -0.0134985
39.575 0.00403044
39.615 0.0159006
39.655 -0.00626837
39.695 0.00174671
39.735 0.00551751
39.775 0.0129827
39.815 0.0253491
39.855 0.0336981
39.895 0.0906198
39.935 0.220535
39.975 0.394857
40.015 0.560037
40.055 0.796892
40.095 0.87158
40.135 0.861895
40.175 0.720751
40.215 0.511292
40.255 0.384089
40.295 0.229103
40.335 0.187623
40.375 0.131345
40.415 0.0850151
40.455 0.0775866
40.495 0.0438586
40.535 0.0139159
40.575 0.0129842
40.615 0.0147013
40.655 0.00348051
40.695 0.0221053
40.735 -0.0170812
40.775 0.0233885
40.815 -0.00145809
40.855 0.00129131
40.895 0.00916103
40.935 0.00194793
40.975 -0.00339764
41.015 0.000804248
41.055 0.00531805
41.095 -0.00543853
41.135 0.00959617
41.175 -0.0144557
41.215 0.0268692
41.255 0.0329958
41.295 -0.00247641
41.335 0.0369791
41.375 0.0175873
41.415 0.0485692
41.455 0.0666024
41.495 0.0629672
41.535 0.111714
41.575 0.103941
41.615 0.102584
41.655 0.0426263
41.695 0.0597346
41.735 0.054043
41.775 0.0316762
41.815 0.00217135
41.855 0.00245432
41.895 8.88712e-06
41.935 0.0193918
41.975 0.0231553
42.015 0.0319774
42.055 0.108525
42.095 0.159667
42.135 0.229161
42.175 0.268796
42.215 0.277598
42.255 0.22552
42.295 0.171114
42.335 0.106434
42.375 0.0744425
42.415 0.0545683
42.455 0.0147398
42.495 0.0321058
42.535 0.0429895
42.575 0.0642294
42.615 0.126903
42.655 0.227792
42.695 0.385985
42.735 0.541888
42.775 0.680968
42.815 0.649964
42.855 0.518904
42.895 0.390206
42.935 0.233466
42.975 0.118529
43.015 0.0280819
43.055 0.00831878
43.095 0.0125266
43.135 -0.00908069
43.175 -0.0148976
43.215 0.0320374
43.255 0.011403
43.295 0.0242024
43.335 0.0171315
43.375 0.0283921
43.415 0.0117237
43.455 0.0047834
43.495 -0.00746881
43.535 -0.00147423
43.575 -0.0102618
43.615 0.00337402
43.655 0.0436048
43.695 -0.000798393
43.735 0.0178459
43.775 0.028553
43.815 0.0284601
43.855 0.0451198
43.895 0.0662803
43.935 0.0929367
43.975 0.100323
44.015 0.158586
44.055 0.181394
44.095 0.247755
44.135 0.363065
44.175 0.396028
44.215 0.370652
44.255 0.310822
44.295 0.206273
44.335 0.164388
44.375 0.116857
44.415 0.14993
44.455 0.177918
44.495 0.129915
44.535 0.124464
44.575 0.097955
44.615 0.0729013
44.655 0.0320465
44.695 0.0285497
44.735 0.0121191
44.775 0.00505508
44.815 -0.00240053
44.855 -0.00636581
44.895 0.0111739
44.935 0.00142869
44.975 -0.013565
45.015 0.00887679
45.055 -0.0128733
45.095 0.0198742
45.135 0.031307
45.175 0.0459418
45.215 0.080762
45.255 0.103484
45.295 0.0581719
45.335 0.0557701
45.375 0.0673371
45.415 0.0595489
45.455 0.102574
45.495 0.0798623
45.535 0.15985
45.575 0.183053
45.615 0.238825
45.655 0.186006
45.695 0.169974
45.735 0.147842
45.775 0.0996871
45.815 0.0894387
45.855 0.0847175
45.895 0.0948977
45.935 0.0639682
45.975 0.0397298
46.015 0.0298177
46.055 0.0327101
46.095 0.0220677
46.135 0.00327384
46.175 0.0134447
46.215 0.00157407
46.255 0.00815785
46.295 0.0235601
46.335 0.018052
46.375 0.0190758
46.415 0.00939847
46.455 0.0206682
46.495 -0.00793734
46.535 -0.0148907
46.575 -0.00795777
46.615 -0.00399996
46.655 0.0284915
46.695 0.0175899
46.735 0.00972558
46.775 0.0534903
46.815 0.00969875
46.855 0.00650477
46.895 0.00869698
46.935 0.0250312
46.975 0.0820418
47.015 0.0530156
47.055 0.0711718
47.095 0.0591083
47.135 0.0425015
47.175 0.0282737
47.215 0.010961
47.255 -0.00879795
47.295 0.0119264
47.335 -0.00388886
47.375 0.0256575
47.415 0.0253675
47.455 0.0603087
47.495 0.0710337
47.535 0.0382103
47.575 0.0368074
47.615 0.0176957
47.655 0.0200198
47.695 0.024845
47.735 0.0463185
47.775 0.0422015
47.815 0.0714758
47.855 0.0700255
47.895 0.0654111
47.935 0.0628414
47.975 0.0708929
48.015 0.0685671
48.055 0.0585755
48.095 0.037918
48.135 0.031828
48.175 0.0115042
48.215 -0.0113844
48.255 0.0048505
48.295 -0.0133509
48.335 -0.00357757
48.375 -0.0149652
48.415 0.0015591
48.455 0.0145389
48.495 0.0130701
48.535 0.0385998
48.575 0.0489103
48.615 0.0898791
48.655 0.103357
48.695 0.124494
48.735 0.169054
48.775 0.155937
48.815 0.188212
48.855 0.185979
48.895 0.197621
48.935 0.145793
48.975 0.0950554
49.015 0.0757787
49.055 0.0892328
49.095 0.0196919
49.135 0.0244221
49.175 0.00182167
49.215 0.00186402
49.255 0.0271115
49.295 0.0545975
49.335 0.0360298
49.375 0.014473
49.415 0.0180957
49.455 -0.00309789
49.495 0.0250692
49.535 -0.0195142
49.575 -0.00706011
49.615 0.00472971
49.655 0.0014347
49.695 0.0179887
49.735 0.0496484
49.775 0.056822
49.815 0.0327422
49.855 0.0628304
49.895 0.05341
49.935 0.0172106
49.975 0.0305449
50.015 0.0169119
50.055 -0.0064888
50.095 0.00803098
50.135 0.00615207
50.175 -0.0217547
50.215 -0.00570637
50.255 -0.0142193
50.295 -0.0108278
50.335 -0.0128074
50.375 0.00135544
50.415 -0.00844442
50.455 0.0101047
50.495 0.00643604
50.535 0.0151511
50.575 0.00293757
50.615 0.00834319
50.655 -0.00663474
50.695 0.0154472
50.735 0.0440321
50.775 0.059881
50.815 0.0359246
50.855 0.0609499
50.895 0.090364
50.935 0.0898553
50.975 0.0991738
51.015 0.061773
51.055 0.0296755
51.095 0.0237372
51.135 0.0250853
51.175 0.0266783
51.215 0.017955
51.255 0.0522889
51.295 0.0662399
51.335 0.0568262
51.375 0.063519
51.415 0.0522822
51.455 0.0248359
51.495 0.0263342
51.535 0.0135815
51.575 -0.000445055
51.615 -0.00751893
51.655 0.00607398
51.695 -0.0094451
51.735 -0.00282946
51.775 0.0125008
51.815 -0.0042343
51.855 0.0191693
51.895 0.044791
51.935 0.0411468
51.975 0.00610277
52.015 0.032747
52.055 0.0382389
52.095 0.050077
52.135 0.0280917
52.175 0.026833
52.215 -0.00891285
52.255 -0.0021286
52.295 -0.00260227
52.335 -0.00709454
52.375 -0.00376398
52.415 -0.00526692
52.455 0.00444016
52.495 -0.00346747
52.535 0.0025641
52.575 0.00524487
52.615 0.00693949
52.655 0.00135067
52.695 0.0268829
52.735 0.0274263
52.775 0.0151409
52.815 0.0382531
52.855 0.0576768
52.895 0.055177
52.935 0.0814905
52.975 0.0795987
53.015 0.0798596
53.055 0.0781303
53.095 0.0641347
53.135 0.0566546
53.175 0.0494795
53.215 0.072731
53.255 0.0938719
53.295 0.146837
53.335 0.149705
53.375 0.146481
53.415 0.177445
53.455 0.153429
53.495 0.102116
53.535 0.0810664
53.575 0.0532896
53.615 0.0245949
53.655 0.0214552
53.695 0.0128539
53.735 0.00968906
53.775 0.00731971
53.815 0.0322829
53.855 0.0215852
53.895 0.0491041
53.935 0.0511514
53.975 0.0557348
54.015 0.0434598
54.055 0.0406039
54.095 0.0462657
54.135 0.038052
54.175 0.0082944
54.215 0.0102204
54.255 0.00465538
54.295 0.00859225
54.335 -0.0133705
54.375 -0.00714353
54.415 -0.0216284
54.455 0.0103947
54.495 0.0126344
54.535 0.00390689
54.575 0.0127054
54.615 0.00480944
54.655 0.00834208
54.695 0.00774403
54.735 0.0103422
54.775 0.00487454
54.815 0.00431216
54.855 0.00728852
54.895 -0.00602844
54.935 0.0215742
54.975 0.0173198
55.015 0.029402
55.055 0.0185734
55.095 0.0178186
55.135 0.030413
55.175 0.0508941
55.215 0.0639715
55.255 0.0728837
55.295 0.0765101
55.335 0.073513
55.375 0.075924
55.415 0.0614119
55.455 0.0323441
55.495 0.0353764
55.535 0.0365497
55.575 0.027828
55.615 0.0272058
55.655 0.0308577
55.695 0.0404868
55.735 0.0315729
55.775 0.0641192
55.815 0.0160755
55.855 0.0331264
55.895 0.00984988
55.935 0.00989877
55.975 0.00532471
56.015 0.00476305
56.055 -0.00468407
56.095 -0.00376646
56.135 0.00780883
56.175 0.000170736
56.215 0.00139732
56.255 0.00840055
56.295 0.010497
56.335 0.0290937
56.375 0.0191173
56.415 0.034427
56.455 0.0283354
56.495 0.0319601
56.535 0.0443065
56.575 0.0238296
56.615 0.0270801
56.655 0.0147262
56.695 0.0368394
56.735 0.0257698
56.775 0.00831758
56.815 0.0324485
56.855 -0.0082666
56.895 0.0118793
56.935 0.0163698
56.975 0.0166585
57.015 0.0171602
57.055 0.0172987
57.095 0.00841473
57.135 0.0346078
57.175 0.0574234
57.215 0.0408488
57.255 0.0502588
57.295 0.0419918
57.335 0.036348
57.375 0.0220374
57.415 0.00232936
57.455 0.00877979
57.495 0.0102755
57.535 0.00828804
57.575 0.00442147
57.615 -0.000901064
57.655 0.0234066
57.695 0.0347849
57.735 0.045022
57.775 0.055692
57.815 0.105111
57.855 0.19348
57.895 0.213581
57.935 0.257125
57.975 0.258029
58.015 0.272492
58.055 0.225662
58.095 0.202619
58.135 0.149238
58.175 0.122972
58.215 0.0898583
58.255 0.0445696
58.295 0.0414833
58.335 0.0174483
58.375 0.0178391
58.415 0.00952321
58.455 -0.0076017
58.495 0.00832507
58.535 -0.00328681
58.575 0.013034
58.615 0.013922
58.655 0.00101913
58.695 0.0215688
58.735 0.00890211
58.775 0.00898641
58.815 -0.0129208
58.855 0.0122027
58.895 0.00882176
58.935 0.0280068
58.975 0.0155964
59.015 0.0342203
59.055 0.0141902
59.095 0.00305529
59.135 0.000121803
59.175 0.0178699
59.215 0.00681423
59.255 0.0103854
59.295 0.0210455
59.335 0.0248207
59.375 0.0481022
59.415 0.0351912
59.455 0.0283721
59.495 0.0496118
59.535 0.0152929
59.575 0.0353128
59.615 0.0563325
59.655 0.0185048
59.695 0.0153501
59.735 0.00432762
59.775 0.0157612
59.815 -0.0110287
59.855 -0.00215223
59.895 0.00531636
59.935 1.57496e-05
59.975 -0.00371062
60.015 0.0179823
60.055 0.0255439
60.095 0.0313068
60.135 0.00882901
60.175 0.0392622
60.215 0.00359076
60.255 0.00652741
60.295 0.0278686
60.335 0.0218169
60.375 0.0237618
60.415 0.0286415
60.455 0.010983
60.495 0.0157634
60.535 0.0154511
60.575 0.0191123
60.615 0.00384471
60.655 0.0304956
60.695 0.0113828
60.735 0.0177995
60.775 0.00615446
60.815 -0.00659753
60.855 -0.00387394
60.895 -0.00194619
60.935 0.0132312
60.975 -0.00371595
61.015 -0.0105206
61.055 0.00630079
61.095 0.00745368
61.135 0.0207226
61.175 0.0201997
61.215 0.0485256
61.255 0.036634
61.295 0.0479052
61.335 0.0576125
61.375 0.0683356
61.415 0.0916284
61.455 0.0499081
61.495 0.0725905
61.535 0.0775991
61.575 0.0893102
61.615 0.111208
61.655 0.182934
61.695 0.211066
61.735 0.240127
61.775 0.266355
61.815 0.2489
61.855 0.198762
61.895 0.164092
61.935 0.149809
61.975 0.139019
62.015 0.069372
62.055 0.0602911
62.095 0.0557208
62.135 0.0597784
62.175 0.0345361
62.215 0.01407
62.255 0.0252356
62.295 0.017752
62.335 0.038859
62.375 -0.00996488
62.415 0.0214634
62.455 0.0346116
62.495 0.046773
62.535 0.0827897
62.575 0.0917438
62.615 0.115148
62.655 0.147611
62.695 0.160413
62.735 0.177364
62.775 0.178708
62.815 0.163894
62.855 0.117486
62.895 0.102946
62.935 0.0950962
62.975 0.0596586
63.015 0.0614859
63.055 0.0241496
63.095 -0.00346326
63.135 0.010972
63.175 0.00500969
63.215 0.0178583
63.255 0.00389037
63.295 0.0181498
63.335 0.00743067
63.375 -0.0065853
63.415 0.0111731
63.455 -0.00858265
63.495 -0.0029531
63.535 0.0166574
63.575 0.00479387
63.615 0.00536684
63.655 0.0228598
63.695 0.0135388
63.735 0.00373403
63.775 -0.00310053
63.815 0.0159911
63.855 -0.000705705
63.895 0.0185314
63.935 0.00262665
63.975 0.00296136
64.015 0.0142852
64.055 0.0154773
64.095 0.00319247
64.135 -0.000898832
64.175 0.0248064
64.215 0.0340218
64.255 0.0359271
64.295 -0.00223896
64.335 0.02942
64.375 0.0172784
64.415 -0.00037785
64.455 0.022257
64.495 0.00689727
64.535 -0.000345826
64.575 0.0135978
64.615 0.0135128
64.655 0.00821977
64.695 0.0244705
64.735 -0.000240739
64.775 0.012504
64.815 0.00686504
64.855 0.0127011
64.895 0.0119056
64.935 0.00741693
64.975 -0.000570472
65.015 0.00694163
65.055 0.013941
65.095 0.00692793
65.135 0.000374189
65.175 0.0067517
65.215 0.00858941
65.255 0.002292
65.295 -0.0202056
65.335 -0.00484577
65.375 0.0203635
65.415 0.0124057
65.455 0.024601
65.495 0.0288835
65.535 0.0568431
65.575 0.057408
65.615 0.0644564
65.655 0.0448065
65.695 0.0808053
65.735 0.0627793
65.775 0.0640811
65.815 0.0467262
65.855 0.0248893
65.895 0.0546467
65.935 0.0311026
65.975 0.0127654
66.015 0.0353786
66.055 0.0245231
66.095 0.0334059
66.135 0.052279
66.175 0.0483077
66.215 0.061624
66.255 0.0859721
66.295 0.10536
66.335 0.20624
66.375 0.253182
66.415 0.362576
66.455 0.452576
66.495 0.520534
66.535 0.571797
66.575 0.585508
66.615 0.532407
66.655 0.481347
66.695 0.361991
66.735 0.31986
66.775 0.272651
66.815 0.197549
66.855 0.155188
66.895 0.117745
66.935 0.0822898
66.975 0.0921975
67.015 0.0831937
67.055 0.0776245
67.095 0.0898493
67.135 0.0510548
67.175 0.0657166
67.215 0.0277257
67.255 0.0110811
67.295 0.0298434
67.335 -0.0192222
67.375 0.0300116
67.415 0.0318406
67.455 0.02971
67.495 0.057311
67.535 0.0322502
67.575 0.0328666
67.615 0.0342956
67.655 0.0734236
67.695 0.0445628
67.735 0.0276841
67.775 0.0294851
67.815 0.0351771
67.855 0.0194358
67.895 -0.00918032
67.935 0.0131694
67.975 0.00104219
68.015 -0.0041415
68.055 -0.00395103
68.095 -0.0145791
68.135 -0.012542
68.175 -0.00301536
68.215 0.0119183
68.255 -0.00290416
68.295 -0.0155089
68.335 0.0302835
68.375 0.015742
68.415 0.00192614
68.455 -0.00429615
68.495 0.0140012
68.535 0.00510731
68.575 -0.0178369
68.615 0.00915272
68.655 -0.00492832
68.695 0.000780516
68.735 0.0261525
68.775 -0.0132207
68.815 -0.0028165
68.855 0.00589029
68.895 0.0170414
68.935 -0.00684922
68.975 0.0187836
69.015 0.0188646
69.055 0.00858126
69.095 0.0189244
69.135 -0.0201859
69.175 -0.0156825
69.215 0.00592002
69.255 0.00654501
69.295 0.00310261
69.335 -0.00333282
69.375 0.02314
69.415 0.00883286
69.455 0.0134491
69.495 -0.00604792
69.535 0.00703609
69.575 0.0143617
69.615 0.00124345
69.655 0.0169649
69.695 0.002566
69.735 0.00770804
69.775 0.0190828
69.815 0.0100653
69.855 -0.000947852
69.895 0.0220687
69.935 -0.0148254
69.975 0.0121579
70.015 0.0161675
70.055 -0.0137503
70.095 -0.00485572
70.135 0.00661432
70.175 -0.00546524
70.215 0.00824003
70.255 0.00809397
70.295 0.00158187
70.335 0.0214066
70.375 0.0101969
70.415 -0.00782286
70.455 -0.00029229
70.495 -0.00930215
70.535 0.0012834
70.575 -0.0142502
70.615 -0.0205489
70.655 0.00162644
70.695 0.0118022
70.735 0.0176635
70.775 0.00258444
70.815 -0.00274189
70.855 0.0206689
70.895 -0.00285533
70.935 0.0041785
70.975 0.0124901
71.015 0.0256279
71.055 0.0558983
71.095 0.0737495
71.135 0.117505
71.175 0.163951
71.215 0.263313
71.255 0.272264
71.295 0.340916
71.335 0.36287
71.375 0.378374
71.415 0.425833
71.455 0.410108
71.495 0.432228
71.535 0.367179
71.575 0.38097
71.615 0.300237
71.655 0.312109
71.695 0.309023
71.735 0.248073
71.775 0.246864
71.815 0.201887
71.855 0.166669
71.895 0.157441
71.935 0.131539
71.975 0.10583
72.015 0.104942
72.055 0.0652118
72.095 0.0547335
72.135 0.0309623
72.175 0.0346697
72.215 0.0203174
72.255 0.0304371
72.295 -0.00877133
72.335 -0.00656213
72.365 -0.021019