File: data/xrd/xy/2019-09-12T19_45_57.603044+00_00_LBL_C11.xy
'Id: "" Comment: "Integrate frame piperidinium_03_001.gfrmwith cursor Wedge Cursor #3" Operator: "UC Berkeley" Anode: "Co" Scantype: "TwoTheta" TimePerStep: "600"
14.175 -0.0258973
14.215 -0.0120829
14.255 -0.00708747
14.295 -0.00113955
14.335 0.0128041
14.375 -0.00883129
14.415 0.0532615
14.455 0.00572861
14.495 -0.0078861
14.535 0.01059
14.575 0.0152544
14.615 0.0079722
14.655 0.00833711
14.695 0.0566775
14.735 0.0251246
14.775 0.0536225
14.815 0.00804327
14.855 0.0233132
14.895 0.00401561
14.935 0.00445012
14.975 0.015978
15.015 0.0224675
15.055 0.0225111
15.095 0.0254831
15.135 0.0117955
15.175 0.0670522
15.215 0.0493503
15.255 0.00626624
15.295 0.0106164
15.335 0.0594797
15.375 0.00892946
15.415 0.0825252
15.455 0.0102566
15.495 0.0376595
15.535 0.0838085
15.575 0.0688662
15.615 0.0341233
15.655 0.0691942
15.695 0.0435114
15.735 0.0196176
15.775 0.0335926
15.815 0.0126127
15.855 0.0275991
15.895 0.0205772
15.935 0.0241808
15.975 0.0414337
16.015 0.0517074
16.055 0.0788221
16.095 0.0846644
16.135 0.105426
16.175 0.0996435
16.215 0.081255
16.255 0.0773465
16.295 0.0239244
16.335 0.00397907
16.375 0.012222
16.415 0.0502166
16.455 0.0200191
16.495 0.0360761
16.535 0.0488569
16.575 0.0169186
16.615 0.0777819
16.655 0.0801051
16.695 0.134886
16.735 0.0897764
16.775 0.0970688
16.815 0.141446
16.855 0.146409
16.895 0.162651
16.935 0.111852
16.975 0.0938757
17.015 0.0828696
17.055 0.100485
17.095 0.089234
17.135 0.0751559
17.175 0.0322439
17.215 0.050263
17.255 -0.0127221
17.295 0.035566
17.335 0.0411504
17.375 0.0304263
17.415 0.0270734
17.455 0.0508804
17.495 -0.00263928
17.535 0.0607306
17.575 0.00820694
17.615 0.0376705
17.655 0.0360522
17.695 0.036099
17.735 0.00519366
17.775 0.0175816
17.815 0.0447641
17.855 0.0362812
17.895 0.0191503
17.935 0.0351584
17.975 0.0314929
18.015 0.0248547
18.055 0.00691948
18.095 0.0129353
18.135 0.0329987
18.175 0.00839564
18.215 0.0517678
18.255 0.0478446
18.295 0.0344259
18.335 0.00216763
18.375 0.0341872
18.415 0.0144332
18.455 0.00455736
18.495 -0.0246799
18.535 0.0213584
18.575 0.0172961
18.615 0.0254568
18.655 0.0585537
18.695 0.0603594
18.735 0.0537796
18.775 0.0801489
18.815 0.0970485
18.855 0.0316652
18.895 0.0909505
18.935 0.0897868
18.975 0.0849625
19.015 0.0430221
19.055 0.0335661
19.095 0.0189846
19.135 0.0359028
19.175 0.0197341
19.215 -0.00432528
19.255 0.057734
19.295 0.0242219
19.335 0.0347626
19.375 0.0403491
19.415 0.0402029
19.455 0.0379545
19.495 0.0342499
19.535 0.000974399
19.575 0.0258262
19.615 0.0256389
19.655 0.0525246
19.695 0.0547387
19.735 0.0881567
19.775 0.0967503
19.815 0.0235157
19.855 -0.0202624
19.895 0.0491634
19.935 0.00582136
19.975 0.00754448
20.015 0.033099
20.055 0.0337008
20.095 0.0276329
20.135 0.028121
20.175 0.00024952
20.215 0.0249119
20.255 0.0155372
20.295 0.0399711
20.335 0.0393329
20.375 -0.000786736
20.415 0.044922
20.455 0.0168155
20.495 0.0233068
20.535 0.0357612
20.575 -0.000906627
20.615 0.0370767
20.655 0.0499958
20.695 -0.0100052
20.735 0.0304225
20.775 -0.0171492
20.815 0.00485913
20.855 0.0142926
20.895 0.00275474
20.935 0.00220729
20.975 0.011395
21.015 0.00717442
21.055 0.0162976
21.095 0.0370405
21.135 0.0644118
21.175 0.0713705
21.215 0.0674631
21.255 0.0490245
21.295 0.0273355
21.335 0.0281695
21.375 0.0798682
21.415 -0.000934965
21.455 -0.00674872
21.495 -0.00624879
21.535 -0.0179367
21.575 0.0104765
21.615 0.00911901
21.655 0.0239639
21.695 -0.00148314
21.735 0.0237741
21.775 0.0293056
21.815 -0.0148507
21.855 0.0178957
21.895 0.0356044
21.935 0.0370405
21.975 0.0556368
22.015 0.018543
22.055 0.0418366
22.095 0.029551
22.135 0.0328357
22.175 0.040718
22.215 0.0444227
22.255 0.0511711
22.295 0.0486403
22.335 -0.0208194
22.375 0.0165062
22.415 0.00888979
22.455 0.00874875
22.495 0.00226617
22.535 0.024168
22.575 0.0318924
22.615 0.0107836
22.655 0.0167839
22.695 0.0235747
22.735 0.001216
22.775 0.0333884
22.815 0.0470914
22.855 0.0763698
22.895 0.048778
22.935 0.00788827
22.975 -0.0109194
23.015 0.0158449
23.055 -0.00934787
23.095 -0.000403423
23.135 -0.0107584
23.175 -0.0156194
23.215 -0.0044492
23.255 0.00407948
23.295 0.0158383
23.335 0.0265054
23.375 -0.00742858
23.415 -0.000166423
23.455 0.0232417
23.495 0.0419175
23.535 0.0288858
23.575 0.0453405
23.615 0.0649409
23.655 0.0489501
23.695 0.0830478
23.735 0.0340376
23.775 0.0357366
23.815 0.0120083
23.855 0.0157932
23.895 -0.0063076
23.935 -0.00777697
23.975 0.00207258
24.015 0.0356682
24.055 0.046966
24.095 0.0752432
24.135 0.120047
24.175 0.243387
24.215 0.441891
24.255 0.704038
24.295 0.913702
24.335 0.934132
24.375 0.723683
24.415 0.416296
24.455 0.146919
24.495 0.0427903
24.535 0.0260022
24.575 0.0558039
24.615 0.061835
24.655 0.12959
24.695 0.16657
24.735 0.230711
24.775 0.204792
24.815 0.214959
24.855 0.181835
24.895 0.259496
24.935 0.314392
24.975 0.375819
25.015 0.442047
25.055 0.66936
25.095 1.11405
25.135 1.60121
25.175 1.89765
25.215 1.76287
25.255 1.31985
25.295 0.663881
25.335 0.290974
25.375 0.145732
25.415 0.07961
25.455 0.0717502
25.495 0.0818354
25.535 0.0332108
25.575 0.0423213
25.615 0.0360319
25.655 0.0509697
25.695 0.0494897
25.735 0.0897451
25.775 0.182197
25.815 0.225573
25.855 0.341125
25.895 0.473938
25.935 0.560167
25.975 0.56477
26.015 0.393616
26.055 0.350837
26.095 0.411037
26.135 0.665108
26.175 1.23042
26.215 1.82831
26.255 2.2524
26.295 2.16555
26.335 1.63667
26.375 1.06415
26.415 0.552237
26.455 0.253307
26.495 0.15071
26.535 0.0870559
26.575 0.0687626
26.615 0.0103545
26.655 0.00264798
26.695 0.0372115
26.735 0.010415
26.775 -0.00105181
26.815 0.00855496
26.855 0.0208143
26.895 0.0911842
26.935 0.113606
26.975 0.210998
27.015 0.190919
27.055 0.199836
27.095 0.188185
27.135 0.133871
27.175 0.0723203
27.215 0.0206058
27.255 0.0290062
27.295 0.0589193
27.335 0.0529881
27.375 0.156182
27.415 0.406121
27.455 0.798339
27.495 0.998632
27.535 0.992843
27.575 0.899886
27.615 0.73957
27.655 0.497267
27.695 0.31625
27.735 0.13499
27.775 0.098491
27.815 0.0336902
27.855 0.00610236
27.895 0.0110522
27.935 0.0438307
27.975 0.0188078
28.015 0.0615316
28.055 0.0760708
28.095 0.084854
28.135 0.0980736
28.175 0.0924002
28.215 0.15804
28.255 0.262136
28.295 0.428789
28.335 0.581159
28.375 0.622062
28.415 0.545104
28.455 0.41214
28.495 0.297378
28.535 0.194859
28.575 0.14968
28.615 0.107544
28.655 0.113501
28.695 0.137249
28.735 0.105803
28.775 0.123932
28.815 0.113166
28.855 0.0834963
28.895 0.0605462
28.935 0.0343857
28.975 0.0164666
29.015 0.00956872
29.055 0.0298011
29.095 0.0385383
29.135 0.0165409
29.175 0.0285095
29.215 0.0284547
29.255 -0.0128427
29.295 0.0227815
29.335 0.0120124
29.375 0.00681693
29.415 0.027017
29.455 0.0234038
29.495 -0.0136079
29.535 -0.00807666
29.575 0.0226684
29.615 0.0424278
29.655 0.0552775
29.695 0.0959139
29.735 0.118203
29.775 0.169094
29.815 0.154163
29.855 0.151042
29.895 0.0506415
29.935 0.053589
29.975 0.0313557
30.015 0.0174552
30.055 0.0136303
30.095 0.039153
30.135 0.0364559
30.175 0.0163673
30.215 0.00122938
30.255 0.00708005
30.295 -0.010571
30.335 0.0209181
30.375 0.0615013
30.415 0.0540031
30.455 0.0715274
30.495 0.0665088
30.535 0.0403837
30.575 0.0558954
30.615 0.0142
30.655 0.0327712
30.695 0.018031
30.735 0.0404662
30.775 0.0290588
30.815 0.0086382
30.855 0.0116139
30.895 0.0333161
30.935 0.0284783
30.975 0.0590412
31.015 0.105469
31.055 0.115544
31.095 0.165189
31.135 0.187781
31.175 0.240935
31.215 0.276287
31.255 0.386725
31.295 0.449535
31.335 0.465391
31.375 0.453595
31.415 0.408114
31.455 0.340096
31.495 0.190676
31.535 0.122637
31.575 0.0535295
31.615 0.0227764
31.655 -0.00393665
31.695 -0.0066798
31.735 -0.00118946
31.775 0.0328795
31.815 0.118128
31.855 0.197401
31.895 0.225718
31.935 0.236408
31.975 0.170466
32.015 0.0941769
32.055 0.0797986
32.095 0.0161001
32.135 0.00444092
32.175 0.011995
32.215 0.0107332
32.255 0.013859
32.295 0.0517258
32.335 0.105823
32.375 0.187312
32.415 0.309602
32.455 0.535682
32.495 0.860616
32.535 1.18441
32.575 1.45297
32.615 1.5796
32.655 1.56813
32.695 1.36583
32.735 0.935157
32.775 0.627644
32.815 0.422663
32.855 0.363586
32.895 0.384497
32.935 0.440386
32.975 0.484399
33.015 0.562495
33.055 0.684668
33.095 0.786403
33.135 0.775565
33.175 0.726635
33.215 0.525121
33.255 0.454622
33.295 0.511529
33.335 0.765289
33.375 1.16588
33.415 1.72051
33.455 1.99571
33.495 1.92898
33.535 1.52371
33.575 1.04119
33.615 0.676973
33.655 0.340019
33.695 0.180102
33.735 0.11689
33.775 0.10543
33.815 0.118251
33.855 0.136279
33.895 0.139725
33.935 0.173268
33.975 0.14415
34.015 0.126109
34.055 0.126345
34.095 0.147524
34.135 0.147608
34.175 0.182602
34.215 0.204998
34.255 0.247526
34.295 0.3127
34.335 0.404469
34.375 0.453002
34.415 0.631812
34.455 0.755839
34.495 0.794713
34.535 0.728905
34.575 0.55419
34.615 0.369384
34.655 0.23795
34.695 0.155769
34.735 0.0858714
34.775 0.0370757
34.815 0.0242709
34.855 -0.00457218
34.895 -0.0100337
34.935 -0.0215058
34.975 -0.00135368
35.015 0.0168741
35.055 0.0495244
35.095 0.0542719
35.135 0.114809
35.175 0.137333
35.215 0.164179
35.255 0.206983
35.295 0.220992
35.335 0.252942
35.375 0.268476
35.415 0.248052
35.455 0.21409
35.495 0.207338
35.535 0.219305
35.575 0.203838
35.615 0.184895
35.655 0.154491
35.695 0.134134
35.735 0.103865
35.775 0.0727142
35.815 0.0262973
35.855 0.0200488
35.895 0.00798407
35.935 -0.006799
35.975 0.0333427
36.015 0.0689085
36.055 0.0727414
36.095 0.0655679
36.135 0.065756
36.175 0.0291819
36.215 0.018549
36.255 -0.0056384
36.295 0.0184115
36.335 0.0195802
36.375 0.0356049
36.415 0.0393365
36.455 0.0326951
36.495 0.0352312
36.535 0.0107253
36.575 0.00211374
36.615 0.00525547
36.655 0.00646092
36.695 0.0266574
36.735 0.0491975
36.775 0.0616751
36.815 0.0791889
36.855 0.0669458
36.895 0.106029
36.935 0.109351
36.975 0.0814719
37.015 0.0838556
37.055 0.0879584
37.095 0.111754
37.135 0.103797
37.175 0.106008
37.215 0.093094
37.255 0.0656448
37.295 0.049625
37.335 0.0267912
37.375 0.0341134
37.415 0.048728
37.455 0.0460969
37.495 0.0220482
37.535 0.034504
37.575 0.0263545
37.615 0.0494864
37.655 0.0439546
37.695 0.0427064
37.735 0.0521064
37.775 0.0324446
37.815 0.0162658
37.855 -0.019366
37.895 0.00671294
37.935 0.000427153
37.975 0.00876056
38.015 -0.00441112
38.055 0.00186755
38.095 -0.014468
38.135 0.00613731
38.175 -0.00817673
38.215 -0.0103652
38.255 -0.0191707
38.295 0.00225552
38.335 0.0027209
38.375 0.0127401
38.415 0.00474668
38.455 0.00491574
38.495 0.0263592
38.535 0.0293896
38.575 0.0528973
38.615 0.0534869
38.655 0.0737185
38.695 0.138285
38.735 0.161243
38.775 0.169265
38.815 0.173482
38.855 0.17331
38.895 0.142194
38.935 0.122095
38.975 0.0951028
39.015 0.0816629
39.055 0.0685485
39.095 0.0642594
39.135 0.0892577
39.175 0.100437
39.215 0.109007
39.255 0.107228
39.295 0.0870436
39.335 0.0914634
39.375 0.084319
39.415 0.0799879
39.455 0.0598081
39.495 0.0510954
39.535 0.0699851
39.575 0.0548247
39.615 0.0663382
39.655 0.0932152
39.695 0.120267
39.735 0.128602
39.775 0.142195
39.815 0.150162
39.855 0.131481
39.895 0.126383
39.935 0.110088
39.975 0.0915879
40.015 0.0804419
40.055 0.0733825
40.095 0.101693
40.135 0.102663
40.175 0.101703
40.215 0.108096
40.255 0.122281
40.295 0.0948638
40.335 0.0740877
40.375 0.0493626
40.415 0.0250097
40.455 0.0347164
40.495 0.0255042
40.535 0.00453008
40.575 0.0236265
40.615 0.0396518
40.655 0.0529559
40.695 0.0611319
40.735 0.128009
40.775 0.169145
40.815 0.299165
40.855 0.371452
40.895 0.438617
40.935 0.460291
40.975 0.462066
41.015 0.457755
41.055 0.455048
41.095 0.433288
41.135 0.399239
41.175 0.301536
41.215 0.222184
41.255 0.147108
41.295 0.0775351
41.335 0.0504846
41.375 0.0174113
41.415 -0.0127411
41.455 -0.0147744
41.495 -0.000139575
41.535 0.00533559
41.575 0.0396138
41.615 0.0453227
41.655 0.0631265
41.695 0.0774205
41.735 0.12874
41.775 0.171497
41.815 0.239662
41.855 0.305845
41.895 0.306579
41.935 0.319176
41.975 0.362926
42.015 0.452994
42.055 0.516917
42.095 0.431951
42.135 0.299994
42.175 0.175349
42.215 0.0874801
42.255 0.0427144
42.295 0.0465285
42.335 0.0220145
42.375 0.0196213
42.415 0.0109318
42.455 -0.0063473
42.495 0.00542914
42.535 -0.0173214
42.575 -0.0163275
42.615 0.011951
42.655 -0.00411215
42.695 0.012153
42.735 0.0117819
42.775 0.0695316
42.815 0.155669
42.855 0.181477
42.895 0.240073
42.935 0.216559
42.975 0.256109
43.015 0.322375
43.055 0.360187
43.095 0.354923
43.135 0.309978
43.175 0.251663
43.215 0.211372
43.255 0.162592
43.295 0.116823
43.335 0.0982351
43.375 0.0666752
43.415 0.0615549
43.455 0.0449588
43.495 0.0637227
43.535 0.0811405
43.575 0.062194
43.615 0.0513208
43.655 0.0527317
43.695 0.010622
43.735 0.00114189
43.775 -0.000871119
43.815 -0.0047949
43.855 -0.0108704
43.895 -0.0214128
43.935 0.00669514
43.975 0.00338144
44.015 -0.0130251
44.055 0.00383372
44.095 0.00627244
44.135 -0.0104575
44.175 -0.0195346
44.215 0.00663365
44.255 0.00408805
44.295 0.0388936
44.335 0.057397
44.375 0.0863136
44.415 0.133671
44.455 0.141565
44.495 0.163373
44.535 0.204777
44.575 0.236778
44.615 0.229659
44.655 0.215017
44.695 0.151128
44.735 0.138364
44.775 0.157372
44.815 0.143679
44.855 0.156355
44.895 0.152846
44.935 0.14043
44.975 0.125108
45.015 0.0602645
45.055 0.0282926
45.095 0.0425139
45.135 0.0498793
45.175 0.0536577
45.215 0.0563512
45.255 0.0852491
45.295 0.0867198
45.335 0.102478
45.375 0.14679
45.415 0.19431
45.455 0.24399
45.495 0.245214
45.535 0.284378
45.575 0.255863
45.615 0.301334
45.655 0.30857
45.695 0.316878
45.735 0.262129
45.775 0.237974
45.815 0.208262
45.855 0.148736
45.895 0.124471
45.935 0.0797837
45.975 0.0647595
46.015 0.0643677
46.055 0.0901707
46.095 0.0890772
46.135 0.106268
46.175 0.148039
46.215 0.130892
46.255 0.15112
46.295 0.182454
46.335 0.222049
46.375 0.196381
46.415 0.208973
46.455 0.142566
46.495 0.133883
46.535 0.126363
46.575 0.152179
46.615 0.196052
46.655 0.248325
46.695 0.297075
46.735 0.391767
46.775 0.4888
46.815 0.485183
46.855 0.478556
46.895 0.388488
46.935 0.296355
46.975 0.235233
47.015 0.208212
47.055 0.194948
47.095 0.161683
47.135 0.158641
47.175 0.144822
47.215 0.134926
47.255 0.11883
47.295 0.105625
47.335 0.111457
47.375 0.121973
47.415 0.130118
47.455 0.0843535
47.495 0.0879609
47.535 0.0466337
47.575 0.00422252
47.615 0.0179521
47.655 0.0144183
47.695 -0.00727669
47.735 -0.00857102
47.775 0.00284671
47.815 -0.0138162
47.855 -0.0131789
47.895 0.00128195
47.935 0.0132013
47.975 0.00393453
48.015 0.0017338
48.055 0.0224545
48.095 0.0235442
48.135 0.038477
48.175 0.0389374
48.215 0.0579789
48.255 0.050175
48.295 0.0575745
48.335 0.0545762
48.375 0.0490316
48.415 0.0542472
48.455 0.0458629
48.495 0.0855929
48.535 0.118661
48.575 0.126264
48.615 0.12687
48.655 0.114492
48.695 0.103857
48.735 0.120327
48.775 0.107384
48.815 0.112708
48.855 0.0884504
48.895 0.0761212
48.935 0.0475408
48.975 0.0194095
49.015 0.019954
49.055 0.0203964
49.095 0.00210912
49.135 0.00767785
49.175 0.00106158
49.215 -0.00463966
49.255 -0.0054478
49.295 0.00274909
49.335 -0.0112196
49.375 -0.0153771
49.415 -0.020501
49.455 -0.00794663
49.495 -0.00556831
49.535 -0.00525562
49.575 -0.00313606
49.615 0.0114435
49.655 0.0067675
49.695 0.00518761
49.735 -0.00245792
49.775 0.0172564
49.815 0.0134993
49.855 0.0173363
49.895 0.0192363
49.935 0.0224971
49.975 0.0398127
50.015 0.0328724
50.055 0.0200308
50.095 0.0144641
50.135 -0.00764104
50.175 -0.0140767
50.215 -0.0110307
50.255 -0.0127685
50.295 0.000754328
50.335 0.0139886
50.375 0.0248302
50.415 0.033104
50.455 0.0432887
50.495 0.045277
50.535 0.0305329
50.575 0.0492006
50.615 0.0524533
50.655 0.0485586
50.695 0.053141
50.735 0.032863
50.775 0.0414716
50.815 0.0329169
50.855 0.0160026
50.895 0.0206849
50.935 0.00111284
50.975 -0.0107167
51.015 -0.0091005
51.055 -0.0200625
51.095 -0.00493566
51.135 0.00749045
51.175 0.00810056
51.215 0.0104025
51.255 0.0212899
51.295 0.033532
51.335 0.0416258
51.375 0.0464887
51.415 0.0608704
51.455 0.068219
51.495 0.0762513
51.535 0.0657206
51.575 0.0689843
51.615 0.0614781
51.655 0.0463124
51.695 0.0204093
51.735 0.000437264
51.775 0.0126191
51.815 0.010704
51.855 0.00291491
51.895 0.0212155
51.935 0.0273711
51.975 0.0376367
52.015 0.0401767
52.055 0.0505586
52.095 0.0474639
52.135 0.0539959
52.175 0.0522028
52.215 0.0554544
52.255 0.0547147
52.295 0.0510649
52.335 0.046526
52.375 0.0255351
52.415 0.0143117
52.455 0.0138011
52.495 0.0118778
52.535 0.0050299
52.575 -0.00651055
52.615 -0.00281043
52.655 -0.0109172
52.695 0.00149139
52.735 0.00814551
52.775 0.0130781
52.815 0.0269874
52.855 0.0322824
52.895 0.0572581
52.935 0.0622026
52.975 0.0966421
53.015 0.116548
53.055 0.125501
53.095 0.139531
53.135 0.150173
53.175 0.177488
53.215 0.19226
53.255 0.203775
53.295 0.191896
53.335 0.181786
53.375 0.158243
53.415 0.124341
53.455 0.105121
53.495 0.096895
53.535 0.0561144
53.575 0.0380266
53.615 0.0472051
53.655 0.0379673
53.695 0.0420644
53.735 0.0650773
53.775 0.0535174
53.815 0.0328597
53.855 0.0247388
53.895 0.0300034
53.935 0.0318354
53.975 0.022977
54.015 0.0346719
54.055 0.037459
54.095 0.0128338
54.135 0.0210105
54.175 0.0145654
54.215 0.0218282
54.255 0.00781939
54.295 0.00433722
54.335 -0.00999505
54.375 -0.0133547
54.415 -0.0109468
54.455 -0.00807816
54.495 0.00231794
54.535 -0.00682545
54.575 -0.00845355
54.615 -8.67757e-05
54.655 -0.0110447
54.695 -0.00511994
54.735 -0.00443015
54.775 0.00445873
54.815 -0.00547683
54.855 -0.00110601
54.895 -0.00231635
54.935 -0.00093046
54.975 -0.00101955
55.015 -0.00599121
55.055 0.00487467
55.095 0.0214902
55.135 0.0203032
55.175 0.032851
55.215 0.0475286
55.255 0.0580155
55.295 0.0815533
55.335 0.102532
55.375 0.128491
55.415 0.147896
55.455 0.156057
55.495 0.181096
55.535 0.192866
55.575 0.145768
55.615 0.122371
55.655 0.0980551
55.695 0.0705669
55.735 0.0498135
55.775 0.06292
55.815 0.0472542
55.855 0.0467547
55.895 0.0513565
55.935 0.0582981
55.975 0.0522538
56.015 0.053808
56.055 0.0441793
56.095 0.0436953
56.135 0.0326527
56.175 0.0410916
56.215 0.0160961
56.255 0.0151386
56.295 0.0185043
56.335 0.0185299
56.375 0.021608
56.415 0.010034
56.455 -0.00478936
56.495 0.0102008
56.535 0.0128692
56.575 0.0245505
56.615 0.0223839
56.655 0.0213025
56.695 0.0189639
56.735 0.017823
56.775 0.0430954
56.815 0.0367793
56.855 0.0277756
56.895 0.0401414
56.935 0.044735
56.975 0.0676582
57.015 0.0754337
57.055 0.0930638
57.095 0.0895695
57.135 0.0876669
57.175 0.0813618
57.215 0.0645943
57.255 0.0612265
57.295 0.0563696
57.335 0.056548
57.375 0.0498888
57.415 0.0533063
57.455 0.0225003
57.495 0.0293169
57.535 0.0190345
57.575 0.022863
57.615 -0.00502566
57.655 -0.0190388
57.695 -0.0028419
57.735 -0.0151208
57.775 0.00738326
57.815 -0.0104307
57.855 0.00212685
57.895 -0.00880318
57.935 -0.0029281
57.975 0.00106252
58.015 0.0133352
58.055 -0.0105699
58.095 0.0166862
58.135 0.0138132
58.175 0.0161803
58.215 0.000816226
58.255 0.0170608
58.295 0.0243191
58.335 0.0229931
58.375 0.0417087
58.415 0.0440196
58.455 0.0278817
58.495 0.022998
58.535 0.0273527
58.575 0.0409846
58.615 0.0434122
58.655 0.0520596
58.695 0.0725824
58.735 0.0500096
58.775 0.038081
58.815 0.0319051
58.855 0.0385218
58.895 0.0159385
58.935 0.0243062
58.975 0.0139818
59.015 0.00601356
59.055 0.0142648
59.095 -0.0114428
59.135 -0.00155817
59.175 -0.00223358
59.215 0.00479807
59.255 -0.0144029
59.295 -0.0187871
59.335 -0.0126293
59.375 -0.00307177
59.415 -0.00857992
59.455 -0.0143286
59.495 0.00387691
59.535 0.0027122
59.575 0.0137704
59.615 0.0191833
59.655 0.0287616
59.695 0.0462855
59.735 0.0382261
59.775 0.0300112
59.815 0.0217361
59.855 0.0463706
59.895 0.0335141
59.935 0.0164188
59.975 0.020069
60.015 0.0159965
60.055 0.00753507
60.095 0.00312336
60.135 1.82461e-05
60.175 -0.00765883
60.215 0.0118892
60.255 0.00711619
60.295 -0.0115173
60.335 0.00744241
60.375 0.0008724
60.415 0.0129129
60.455 0.00873189
60.495 0.0137366
60.535 0.0279971
60.575 0.0358904
60.615 0.0538705
60.655 0.0574795
60.695 0.0424152
60.735 0.0493908
60.775 0.0215712
60.815 0.05513
60.855 0.0400991
60.895 0.0415245
60.935 0.0696812
60.975 0.0461606
61.015 0.0511175
61.055 0.0424709
61.095 0.0328641
61.135 0.0169642
61.175 0.014197
61.215 0.00627037
61.255 0.0166772
61.295 0.000215108
61.335 0.0103036
61.375 -0.00231007
61.415 0.0210882
61.455 0.0105549
61.495 0.0232905
61.535 0.0198211
61.575 0.0125837
61.615 0.00127755
61.655 0.00406944
61.695 -0.00304519
61.735 -0.0109307
61.775 -0.00765615
61.815 0.0211521
61.855 0.0051554
61.895 0.000669889
61.935 -0.0178561
61.975 0.00863884
62.015 -0.00140173
62.055 -0.00190546
62.095 -0.00552942
62.135 0.00163577
62.175 -0.0094097
62.215 -0.00714393
62.255 0.00159492
62.295 -0.005872
62.335 7.18453e-05
62.375 0.00287605
62.415 0.000684576
62.455 0.00342061
62.495 0.0119439
62.535 0.0151716
62.575 0.0101117
62.615 0.0156618
62.655 0.0120638
62.695 0.0072067
62.735 0.00731736
62.775 0.0160215
62.815 0.00307961
62.855 0.00397015
62.895 0.0219318
62.935 0.00785322
62.975 0.00412118
63.015 0.0331948
63.055 0.0232458
63.095 0.0157868
63.135 0.0266027
63.175 0.0432666
63.215 0.0299093
63.255 0.0347498
63.295 0.0252553
63.335 0.0268072
63.375 0.0131816
63.415 0.0155413
63.455 0.00452434
63.495 -0.000379449
63.535 0.00200015
63.575 -0.000300147
63.615 0.00803357
63.655 -0.00319642
63.695 -0.00228507
63.735 -0.00403024
63.775 -0.00127998
63.815 0.00582189
63.855 -0.011232
63.895 0.0102663
63.935 0.0119746
63.975 -0.0070526
64.015 0.00152807
64.055 0.00467723
64.095 -0.00789803
64.135 0.00360979
64.175 0.0093572
64.215 -0.00341904
64.255 0.0143773
64.295 0.0108338
64.335 -0.00907725
64.375 -0.0049091
64.415 0.00698489
64.455 0.00959113
64.495 -0.00127003
64.535 -0.00484889
64.575 0.00849399
64.615 0.0104366
64.655 0.0148677
64.695 -0.00458393
64.735 6.96898e-05
64.775 -0.00915489
64.815 -0.00101903
64.855 0.00376896
64.895 -0.0102028
64.935 -0.00273665
64.975 0.000170677
65.015 0.00453848
65.055 0.000752679
65.095 -0.00137002
65.135 -0.00415534
65.175 0.00528704
65.215 0.00248355
65.255 0.00573023
65.295 -0.00145995
65.335 -0.0113582
65.375 -0.00287572
65.415 0.00206133
65.455 0.00785101
65.495 0.00156342
65.535 0.000362046
65.575 0.0109232
65.615 0.0108418
65.655 0.0202523
65.695 0.00296685
65.735 0.0068317
65.775 0.00508296
65.815 0.00339715
65.855 -0.0114913
65.895 0.00275233
65.935 0.0107453
65.975 -0.00545437
66.015 0.00988449
66.055 0.00270721
66.095 0.00657636
66.135 -0.00542829
66.175 0.00806448
66.215 0.0113818
66.255 -0.00913778
66.295 -0.00343664
66.335 -0.0135012
66.375 0.00212446
66.415 -0.000140915
66.455 0.00792264
66.495 -0.00206174
66.535 -0.00401458
66.575 0.00519821
66.615 -0.004345
66.655 -0.0116718
66.695 0.00225795
66.735 0.00343183
66.775 -0.00464504
66.815 -0.00491727
66.855 0.00707303
66.895 0.00652374
66.935 0.0236773
66.975 0.0257816
67.015 0.027929
67.055 0.0307965
67.095 0.0483579
67.135 0.0264845
67.175 0.0369609
67.215 0.0567583
67.255 0.0513582
67.295 0.0443329
67.335 0.0604963
67.375 0.0714179
67.415 0.082578
67.455 0.0724053
67.495 0.0614946
67.535 0.037215
67.575 0.0277617
67.615 0.0143773
67.655 0.0169792
67.695 0.0272426
67.735 0.0188141
67.775 -0.00268981
67.815 -0.00451452
67.855 0.00236449
67.895 -0.00247486
67.935 -0.00089317
67.975 -0.00134567
68.015 -0.00295642
68.055 0.00933532
68.095 -0.00648402
68.135 -0.0104958
68.175 0.00272334
68.215 0.00214333
68.255 0.00724871
68.295 0.0198258
68.335 0.0233939
68.375 0.0185849
68.415 0.028844
68.455 0.0128567
68.495 0.0138147
68.535 0.0256252
68.575 0.0352517
68.615 0.0324448
68.655 0.0438828
68.695 0.0317395
68.735 0.0250189
68.775 0.0242319
68.815 0.0250808
68.855 0.011102
68.895 0.0218539
68.935 0.0347099
68.975 0.0210745
69.015 0.0212763
69.055 0.0065476
69.095 -0.00644959
69.135 0.00622225
69.175 -0.000237448
69.215 -0.00592691
69.255 -0.0121747
69.275 -0.0189139