File: data/xrd/xy/2019-08-28T18_53_30.435495+00_00_LBL_G2.xy
'Id: "" Comment: "Integrate frame pyridinium0_00_003.gfrmwith cursor Wedge Cursor #1" Operator: "UC Berkeley" Anode: "Co" Scantype: "TwoTheta" TimePerStep: "600"
13.81 -0.024995
13.85 0.0166318
13.89 0.0115996
13.93 0.0659427
13.97 0.082672
14.01 0.0501873
14.05 -0.00169575
14.09 0.0550811
14.13 0.0371092
14.17 0.0136836
14.21 0.0357006
14.25 0.0234769
14.29 0.0015753
14.33 0.0185265
14.37 0.043808
14.41 0.0771134
14.45 0.0252637
14.49 0.058826
14.53 0.0412512
14.57 0.0267412
14.61 0.0391495
14.65 0.0680284
14.69 0.0209086
14.73 0.0251834
14.77 0.00209097
14.81 0.0166975
14.85 0.0441822
14.89 0.0104987
14.93 0.0179661
14.97 0.0351691
15.01 0.0459438
15.05 0.0118271
15.09 0.0474049
15.13 0.0129838
15.17 -0.0100081
15.21 0.0442109
15.25 0.0330575
15.29 0.0526133
15.33 0.0501974
15.37 0.0623995
15.41 0.0457453
15.45 0.0651384
15.49 0.00373409
15.53 0.0393018
15.57 0.0285381
15.61 0.0712484
15.65 0.0299801
15.69 0.0244336
15.73 -0.00513565
15.77 0.0202725
15.81 0.022284
15.85 -0.0137255
15.89 0.0493364
15.93 0.0540347
15.97 0.019297
16.01 0.0359955
16.05 0.00955807
16.09 0.060417
16.13 0.0336516
16.17 0.0180489
16.21 0.0428519
16.25 0.0175236
16.29 0.0425545
16.33 0.0660193
16.37 0.054695
16.41 0.0240978
16.45 -0.00375288
16.49 0.0292863
16.53 0.0285876
16.57 0.0107851
16.61 0.0118161
16.65 0.0154251
16.69 0.0355788
16.73 0.0101333
16.77 0.0352322
16.81 -0.00474429
16.85 0.023093
16.89 0.000885178
16.93 0.0207564
16.97 0.0324094
17.01 0.0424333
17.05 0.0207957
17.09 0.0285646
17.13 0.0324874
17.17 0.0120875
17.21 -0.00240408
17.25 0.0214575
17.29 0.00733085
17.33 0.0249546
17.37 0.00417229
17.41 -0.0201431
17.45 0.0369508
17.49 -0.00381444
17.53 0.00644568
17.57 0.0302139
17.61 0.0292681
17.65 0.0292008
17.69 0.0302181
17.73 0.0303227
17.77 0.063514
17.81 0.0109802
17.85 0.0465716
17.89 0.0238715
17.93 0.073503
17.97 0.044985
18.01 0.0342198
18.05 0.0126005
18.09 0.0273338
18.13 0.0299455
18.17 0.0245354
18.21 0.0467119
18.25 0.0289387
18.29 0.0251476
18.33 0.0369128
18.37 0.0211355
18.41 0.0264323
18.45 0.0402593
18.49 0.0192993
18.53 0.028908
18.57 0.00495519
18.61 0.0606673
18.65 0.00432661
18.69 0.0664074
18.73 0.0383945
18.77 0.0395935
18.81 0.0363183
18.85 0.0167051
18.89 0.029562
18.93 0.0391076
18.97 0.0459809
19.01 0.0439503
19.05 0.0213187
19.09 0.0402847
19.13 0.0563645
19.17 0.0314112
19.21 0.046797
19.25 0.0412428
19.29 0.0262303
19.33 0.0134079
19.37 0.0199119
19.41 0.0337643
19.45 -0.000126462
19.49 0.0590111
19.53 0.0303285
19.57 0.0653269
19.61 0.034114
19.65 0.0391047
19.69 0.0193295
19.73 0.0444723
19.77 0.029199
19.81 0.0119666
19.85 0.0212796
19.89 0.0588517
19.93 0.0285287
19.97 0.0402079
20.01 0.0307435
20.05 0.042877
20.09 0.0247258
20.13 -0.00558682
20.17 0.0273253
20.21 0.0460937
20.25 0.0236293
20.29 0.0219492
20.33 -0.0179191
20.37 0.0264033
20.41 0.0414914
20.45 0.0368189
20.49 0.0138689
20.53 0.0351607
20.57 0.0161029
20.61 0.0509506
20.65 0.0213371
20.69 0.0588153
20.73 0.0942074
20.77 0.161755
20.81 0.22011
20.85 0.208801
20.89 0.171129
20.93 0.138662
20.97 0.102834
21.01 0.0363297
21.05 0.0338528
21.09 0.0253262
21.13 0.0313395
21.17 0.0317069
21.21 0.0551536
21.25 0.0460251
21.29 0.0752116
21.33 0.0273552
21.37 0.0230429
21.41 0.0497005
21.45 0.0945013
21.49 0.0504468
21.53 0.0406599
21.57 0.0290731
21.61 0.0404293
21.65 0.0618581
21.69 0.0206855
21.73 0.049763
21.77 -0.00534655
21.81 0.00631444
21.85 0.0264669
21.89 0.0227561
21.93 -0.00205127
21.97 0.0393038
22.01 0.0207795
22.05 0.0385226
22.09 0.0273435
22.13 0.0305841
22.17 0.0385616
22.21 0.038611
22.25 0.0261938
22.29 0.0111642
22.33 0.0284519
22.37 -0.00815045
22.41 -0.0132328
22.45 -0.0135262
22.49 0.0254442
22.53 0.00388279
22.57 0.049535
22.61 0.0127839
22.65 0.00312628
22.69 0.0151172
22.73 -0.00574353
22.77 0.03786
22.81 -0.00767922
22.85 0.0417315
22.89 0.0278229
22.93 0.0428159
22.97 0.0475569
23.01 0.0649959
23.05 0.119683
23.09 0.237904
23.13 0.287842
23.17 0.381934
23.21 0.405186
23.25 0.331066
23.29 0.213235
23.33 0.132464
23.37 0.0545632
23.41 0.0205211
23.45 0.0306713
23.49 0.0088371
23.53 0.0157512
23.57 0.0103203
23.61 0.0223128
23.65 0.0358196
23.69 0.0311533
23.73 0.0108933
23.77 0.0208915
23.81 0.00953431
23.85 0.018123
23.89 -0.000535301
23.93 0.00516582
23.97 0.00162413
24.01 -0.00250002
24.05 0.0312176
24.09 0.00867864
24.13 0.0201348
24.17 0.0379929
24.21 0.00499719
24.25 0.00680786
24.29 0.0329538
24.33 0.0103718
24.37 0.012566
24.41 0.0159137
24.45 0.0135812
24.49 -0.0067132
24.53 0.0288858
24.57 -0.0121997
24.61 0.0174033
24.65 0.0224611
24.69 0.0210155
24.73 0.0244933
24.77 0.0199857
24.81 -0.00310727
24.85 0.032979
24.89 0.0517519
24.93 0.0354096
24.97 0.02647
25.01 0.0336097
25.05 0.0460497
25.09 0.0350586
25.13 0.0422574
25.17 0.0456415
25.21 0.0338203
25.25 0.0300929
25.29 0.0348037
25.33 0.0578235
25.37 0.0579575
25.41 0.0867532
25.45 0.104882
25.49 0.140024
25.53 0.128192
25.57 0.114758
25.61 0.0810964
25.65 0.0608613
25.69 0.0348506
25.73 0.0238796
25.77 -0.00644944
25.81 0.0210351
25.85 0.0133946
25.89 0.0164459
25.93 0.00430701
25.97 -0.0227493
26.01 -0.000905758
26.05 0.0442275
26.09 0.0266116
26.13 -0.00210049
26.17 0.00995178
26.21 0.0169504
26.25 0.0177845
26.29 -0.00496602
26.33 0.0145605
26.37 0.0222468
26.41 0.0400994
26.45 0.058678
26.49 0.0396261
26.53 0.0834061
26.57 0.0443264
26.61 0.0255943
26.65 0.048256
26.69 0.0155544
26.73 -0.0103728
26.77 0.0177878
26.81 0.00307514
26.85 0.000867474
26.89 0.00916913
26.93 0.021602
26.97 -0.00908463
27.01 0.0196019
27.05 0.000914873
27.09 -0.00328162
27.13 0.00104811
27.17 0.0245528
27.21 -0.00156336
27.25 -0.0193398
27.29 0.00963337
27.33 -0.00251498
27.37 0.0317729
27.41 0.00356929
27.45 0.00295647
27.49 0.0189565
27.53 0.000597406
27.57 0.0142482
27.61 0.00447371
27.65 -0.00797763
27.69 0.0240175
27.73 0.0336231
27.77 0.0235076
27.81 0.00735083
27.85 0.0419379
27.89 0.0525066
27.93 0.0877416
27.97 0.146556
28.01 0.291629
28.05 0.645889
28.09 1.29321
28.13 1.9747
28.17 2.21205
28.21 1.98243
28.25 1.27671
28.29 0.639936
28.33 0.284995
28.37 0.0839005
28.41 0.0660606
28.45 0.0757745
28.49 0.0795336
28.53 0.0812695
28.57 0.0682077
28.61 0.0309471
28.65 -0.000270725
28.69 -0.00560575
28.73 -0.014259
28.77 0.0200028
28.81 0.0175034
28.85 -0.0166961
28.89 0.005142
28.93 0.0434644
28.97 0.0454087
29.01 0.0392655
29.05 0.0555815
29.09 0.119491
29.13 0.0934978
29.17 0.0666376
29.21 0.0824255
29.25 0.0338345
29.29 0.0144958
29.33 0.00837651
29.37 0.0708287
29.41 0.0954384
29.45 0.169563
29.49 0.200503
29.53 0.183999
29.57 0.230075
29.61 0.262228
29.65 0.252842
29.69 0.20017
29.73 0.152903
29.77 0.0877371
29.81 -0.00944342
29.85 0.00696603
29.89 0.0219405
29.93 0.000508183
29.97 -0.00707303
30.01 0.0134209
30.05 -0.00178185
30.09 0.0453008
30.13 -0.00864767
30.17 0.0215435
30.21 0.00577209
30.25 0.00237622
30.29 0.0300269
30.33 0.0554795
30.37 0.0712398
30.41 0.141534
30.45 0.295572
30.49 0.491324
30.53 0.735097
30.57 0.881946
30.61 0.770095
30.65 0.543068
30.69 0.327224
30.73 0.168457
30.77 0.0640525
30.81 0.0455576
30.85 0.0117954
30.89 -0.0194589
30.93 0.0305799
30.97 0.0100518
31.01 0.00470313
31.05 0.00531354
31.09 -0.00113774
31.13 0.011475
31.17 -0.0129397
31.21 -0.00309244
31.25 -0.000921176
31.29 0.0264668
31.33 0.00904648
31.37 -0.0073166
31.41 -0.0111507
31.45 -0.00984207
31.49 -0.00742236
31.53 0.0160452
31.57 0.0103898
31.61 0.000385186
31.65 0.00650355
31.69 -0.00968564
31.73 -0.00444136
31.77 0.0167249
31.81 -0.00240084
31.85 0.00131775
31.89 -0.0108041
31.93 0.0220824
31.97 0.0249173
32.01 0.0323493
32.05 0.0723474
32.09 0.138195
32.13 0.241745
32.17 0.397175
32.21 0.550749
32.25 0.620386
32.29 0.658969
32.33 0.614211
32.37 0.547494
32.41 0.344766
32.45 0.238547
32.49 0.100077
32.53 0.0426698
32.57 0.00370362
32.61 -0.00172575
32.65 -0.0192887
32.69 0.0100346
32.73 -0.00824052
32.77 -0.00118394
32.81 -0.0111879
32.85 -0.0143274
32.89 0.00296825
32.93 -0.0162156
32.97 -0.00507671
33.01 0.0360094
33.05 0.0592853
33.09 0.104007
33.13 0.132626
33.17 0.201107
33.21 0.199554
33.25 0.137747
33.29 0.0962224
33.33 0.0549069
33.37 0.0214192
33.41 0.022742
33.45 0.00864468
33.49 -0.0026709
33.53 -0.00460962
33.57 -0.00202272
33.61 -0.0106738
33.65 -0.00936791
33.69 0.0219661
33.73 -0.00773266
33.77 0.0107512
33.81 0.00145627
33.85 0.0108227
33.89 0.0273235
33.93 0.0460146
33.97 0.0824287
34.01 0.0896567
34.05 0.0823761
34.09 0.062774
34.13 0.0673199
34.17 0.0443663
34.21 0.0129717
34.25 0.0100896
34.29 0.0133366
34.33 0.0283611
34.37 0.0249625
34.41 0.0246207
34.45 0.0615916
34.49 0.0642489
34.53 0.0941968
34.57 0.197194
34.61 0.292859
34.65 0.568498
34.69 0.927697
34.73 1.32655
34.77 1.64651
34.81 1.65269
34.85 1.47516
34.89 1.14422
34.93 0.867804
34.97 0.55685
35.01 0.350909
35.05 0.189896
35.09 0.100105
35.13 0.0421184
35.17 0.0164855
35.21 0.0263612
35.25 0.00854492
35.29 0.0105083
35.33 0.0194669
35.37 0.0067885
35.41 0.0183132
35.45 -0.00931966
35.49 0.00696471
35.53 0.0141477
35.57 -0.0208393
35.61 -0.00024501
35.65 -0.00295684
35.69 0.0106403
35.73 0.0257491
35.77 0.0240781
35.81 0.0348861
35.85 0.0831463
35.89 0.136714
35.93 0.264863
35.97 0.425316
36.01 0.594817
36.05 0.683471
36.09 0.681042
36.13 0.571293
36.17 0.440205
36.21 0.322687
36.25 0.275493
36.29 0.380181
36.33 0.520115
36.37 0.771032
36.41 0.910912
36.45 0.980838
36.49 0.875091
36.53 0.718248
36.57 0.47319
36.61 0.239755
36.65 0.0983957
36.69 0.0332328
36.73 0.0263749
36.77 0.0282009
36.81 0.0326063
36.85 0.0480046
36.89 0.0323971
36.93 0.0308497
36.97 0.0164189
37.01 0.0257267
37.05 -0.00193567
37.09 0.00803364
37.13 0.000203552
37.17 0.00986636
37.21 0.0302002
37.25 0.037059
37.29 0.0467969
37.33 0.0281028
37.37 0.0293994
37.41 0.0176462
37.45 -0.0045397
37.49 -0.00346368
37.53 -0.004545
37.57 -0.0109621
37.61 0.00331468
37.65 0.00744235
37.69 0.00986637
37.73 0.0449832
37.77 0.0880855
37.81 0.173921
37.85 0.276308
37.89 0.446895
37.93 0.562748
37.97 0.704801
38.01 0.790009
38.05 0.749163
38.09 0.636185
38.13 0.444311
38.17 0.284449
38.21 0.1348
38.25 0.0711225
38.29 0.0328628
38.33 0.0243695
38.37 0.012628
38.41 0.00106739
38.45 0.000530611
38.49 0.0107381
38.53 0.0302756
38.57 0.0285082
38.61 0.051717
38.65 0.0531351
38.69 0.0893788
38.73 0.0938806
38.77 0.0856794
38.81 0.053005
38.85 0.0488154
38.89 0.0103931
38.93 0.00580446
38.97 0.00735378
39.01 -0.00744812
39.05 -0.000457039
39.09 0.00360962
39.13 0.00375839
39.17 -0.014172
39.21 0.00349621
39.25 0.0136949
39.29 0.00579306
39.33 0.0213038
39.37 0.0330237
39.41 0.0105103
39.45 0.033604
39.49 0.00813607
39.53 0.0284294
39.57 0.0262012
39.61 0.0136083
39.65 0.0173992
39.69 -0.00578528
39.73 -0.00785746
39.77 0.0124668
39.81 -0.0178284
39.85 -0.00279928
39.89 0.0166113
39.93 0.00141671
39.97 0.0160903
40.01 0.0349071
40.05 0.0345458
40.09 0.0800627
40.13 0.0906706
40.17 0.123461
40.21 0.108147
40.25 0.0813989
40.29 0.063767
40.33 0.0408948
40.37 0.019081
40.41 -0.00298518
40.45 -0.00413314
40.49 -0.0124483
40.53 -0.013013
40.57 0.00207464
40.61 -0.0168655
40.65 -0.0182736
40.69 -0.0121048
40.73 0.0220605
40.77 0.0331337
40.81 0.00952648
40.85 0.0577474
40.89 0.0339035
40.93 0.0231851
40.97 0.0146904
41.01 -0.0012137
41.05 -0.00365572
41.09 0.000753718
41.13 -0.0112303
41.17 -0.00584037
41.21 0.0174699
41.25 0.0243719
41.29 0.015559
41.33 0.0617528
41.37 0.0667431
41.41 0.0931646
41.45 0.10018
41.49 0.135861
41.53 0.178642
41.57 0.208108
41.61 0.22246
41.65 0.175421
41.69 0.151642
41.73 0.109273
41.77 0.0370037
41.81 0.0470664
41.85 0.0369133
41.89 0.0352055
41.93 0.0904747
41.97 0.171276
42.01 0.293464
42.05 0.403328
42.09 0.458057
42.13 0.41966
42.17 0.360512
42.21 0.335366
42.25 0.451127
42.29 0.657253
42.33 0.82937
42.37 1.06449
42.41 1.12367
42.45 1.05866
42.49 0.784472
42.53 0.578354
42.57 0.321154
42.61 0.170763
42.65 0.0746729
42.69 0.0791732
42.73 0.0552586
42.77 0.0463316
42.81 0.0470493
42.85 0.0570544
42.89 0.108088
42.93 0.127588
42.97 0.178695
43.01 0.15584
43.05 0.146241
43.09 0.103209
43.13 0.072263
43.17 0.053157
43.21 0.0444147
43.25 0.0608709
43.29 0.138944
43.33 0.211993
43.37 0.293462
43.41 0.368339
43.45 0.350085
43.49 0.331402
43.53 0.262494
43.57 0.212777
43.61 0.152476
43.65 0.147219
43.69 0.116483
43.73 0.119148
43.77 0.125291
43.81 0.0752402
43.85 0.0598384
43.89 0.0548234
43.93 0.0137584
43.97 -0.00591353
44.01 -0.00329662
44.05 0.00744647
44.09 0.00651372
44.13 -0.0199603
44.17 0.0032066
44.21 -0.0105598
44.25 -0.00931817
44.29 0.00542977
44.33 0.012989
44.37 0.0057657
44.41 -0.0018917
44.45 0.0194477
44.49 0.0279267
44.53 0.0441321
44.57 0.104967
44.61 0.238717
44.65 0.40392
44.69 0.633619
44.73 0.732503
44.77 0.798783
44.81 0.740056
44.85 0.602058
44.89 0.493599
44.93 0.386296
44.97 0.347928
45.01 0.300475
45.05 0.214634
45.09 0.158987
45.13 0.102333
45.17 0.0569981
45.21 0.0177495
45.25 0.00711002
45.29 0.0101719
45.33 0.00721537
45.37 0.0022778
45.41 0.022582
45.45 0.0222533
45.49 0.00573097
45.53 0.00971027
45.57 0.0189924
45.61 0.0395994
45.65 0.00711177
45.69 -0.00752379
45.73 -0.0188918
45.77 -0.0187051
45.81 0.0193858
45.85 -0.00378119
45.89 -0.00223442
45.93 0.00429195
45.97 -0.00891183
46.01 0.0165078
46.05 0.0359756
46.09 0.0466936
46.13 0.110014
46.17 0.119632
46.21 0.156507
46.25 0.185974
46.29 0.250063
46.33 0.269562
46.37 0.241342
46.41 0.210298
46.45 0.175709
46.49 0.137181
46.53 0.120619
46.57 0.113977
46.61 0.110164
46.65 0.13747
46.69 0.141545
46.73 0.170065
46.77 0.130543
46.81 0.103434
46.85 0.0729177
46.89 0.0641283
46.93 0.0577935
46.97 0.0529712
47.01 0.0576002
47.05 0.067779
47.09 0.109548
47.13 0.152394
47.17 0.23481
47.21 0.375838
47.25 0.538959
47.29 0.76363
47.33 0.989905
47.37 1.1871
47.41 1.34848
47.45 1.34294
47.49 1.30541
47.53 1.31123
47.57 1.31186
47.61 1.30175
47.65 1.1744
47.69 0.979195
47.73 0.752649
47.77 0.53257
47.81 0.33514
47.85 0.200268
47.89 0.0971759
47.93 0.0675737
47.97 0.0462785
48.01 0.0367932
48.05 0.0294206
48.09 0.0345075
48.13 0.0402843
48.17 0.0463263
48.21 0.0498123
48.25 0.0525181
48.29 0.0569339
48.33 0.0308178
48.37 0.0225327
48.41 0.0278442
48.45 0.0120188
48.49 0.00891822
48.53 -0.0045307
48.57 0.0171972
48.61 0.00680518
48.65 -0.0102747
48.69 0.00581064
48.73 0.00229445
48.77 -0.00502485
48.81 -0.00745429
48.85 -0.00406321
48.89 -0.00140962
48.93 -0.0167724
48.97 0.00180091
49.01 -0.00343719
49.05 -0.00380093
49.09 -0.00841728
49.13 0.00622743
49.17 -0.000790929
49.21 0.0139116
49.25 0.0061694
49.29 0.0174639
49.33 0.054226
49.37 0.0497173
49.41 0.0829913
49.45 0.096916
49.49 0.105025
49.53 0.10915
49.57 0.0994907
49.61 0.0860446
49.65 0.0770646
49.69 0.0761748
49.73 0.0825868
49.77 0.112967
49.81 0.129161
49.85 0.154439
49.89 0.145887
49.93 0.143936
49.97 0.138113
50.01 0.0913588
50.05 0.0802322
50.09 0.0552416
50.13 0.0736885
50.17 0.0635388
50.21 0.0576365
50.25 0.0445735
50.29 0.0387017
50.33 0.0323861
50.37 0.0289166
50.41 0.0230298
50.45 0.0400896
50.49 0.065894
50.53 0.126944
50.57 0.172237
50.61 0.255969
50.65 0.328494
50.69 0.427522
50.73 0.479857
50.77 0.496928
50.81 0.452399
50.85 0.362283
50.89 0.286814
50.93 0.213548
50.97 0.158611
51.01 0.118016
51.05 0.111483
51.09 0.109176
51.13 0.108132
51.17 0.117635
51.21 0.121816
51.25 0.126088
51.29 0.126911
51.33 0.136748
51.37 0.133754
51.41 0.130989
51.45 0.103004
51.49 0.0914605
51.53 0.0589415
51.57 0.0356755
51.61 0.0282751
51.65 0.0107676
51.69 -0.00638793
51.73 -0.0166426
51.77 -0.0146906
51.81 -0.0108195
51.85 0.00270661
51.89 -0.00411696
51.93 2.60235e-05
51.97 -0.00246008
52.01 0.00171322
52.05 0.0161951
52.09 0.00910012
52.13 0.0408015
52.17 0.0395242
52.21 0.0554717
52.25 0.0821542
52.29 0.08527
52.33 0.105969
52.37 0.145625
52.41 0.188314
52.45 0.221335
52.49 0.265574
52.53 0.264231
52.57 0.24514
52.61 0.175632
52.65 0.132687
52.69 0.0979207
52.73 0.0704162
52.77 0.0456394
52.81 0.0291082
52.85 0.0347331
52.89 0.0563064
52.93 0.0782057
52.97 0.122748
53.01 0.153614
53.05 0.230243
53.09 0.271639
53.13 0.30163
53.17 0.32148
53.21 0.287911
53.25 0.237146
53.29 0.198136
53.33 0.173703
53.37 0.136997
53.41 0.126003
53.45 0.117578
53.49 0.125348
53.53 0.108779
53.57 0.0904921
53.61 0.0670552
53.65 0.0374713
53.69 0.0203111
53.73 0.0210955
53.77 0.0238186
53.81 0.0210406
53.85 0.0376587
53.89 0.0305017
53.93 0.073127
53.97 0.103041
54.01 0.15189
54.05 0.229454
54.09 0.299111
54.13 0.393237
54.17 0.483136
54.21 0.519672
54.25 0.488249
54.29 0.488364
54.33 0.405566
54.37 0.328439
54.41 0.246049
54.45 0.192898
54.49 0.115683
54.53 0.07565
54.57 0.0534542
54.61 0.0481118
54.65 0.0318513
54.69 0.0342349
54.73 0.0206015
54.77 0.0241352
54.81 0.0123176
54.85 0.01998
54.89 0.0065635
54.93 0.00711393
54.97 -0.00519809
55.01 -0.00189805
55.05 -0.00794328
55.09 0.0101552
55.13 -0.000224793
55.17 0.00676014
55.21 0.0119478
55.25 0.0122348
55.29 0.00477464
55.33 0.00636502
55.37 0.0232361
55.41 0.0171513
55.45 0.0220844
55.49 0.0308597
55.53 0.044874
55.57 0.0437406
55.61 0.0694648
55.65 0.0836931
55.69 0.103398
55.73 0.136037
55.77 0.177965
55.81 0.192512
55.85 0.214553
55.89 0.198475
55.93 0.197578
55.97 0.183484
56.01 0.144482
56.05 0.12071
56.09 0.0844352
56.13 0.0666858
56.17 0.0355387
56.21 0.023975
56.25 0.0116695
56.29 0.0138768
56.33 -0.000131025
56.37 -0.00474411
56.41 0.0158729
56.45 0.000114965
56.49 -0.000267495
56.53 -0.00111499
56.57 0.00305785
56.61 0.00544536
56.65 0.00225832
56.69 0.00728023
56.73 0.0148955
56.77 0.00514329
56.81 -0.00497911
56.85 -0.00259537
56.89 0.0177656
56.93 0.00763993
56.97 0.00934783
57.01 0.022603
57.05 0.0175147
57.09 0.0274428
57.13 0.0109304
57.17 0.0390297
57.21 0.0453336
57.25 0.0617603
57.29 0.0691163
57.33 0.0962346
57.37 0.120951
57.41 0.136368
57.45 0.136781
57.49 0.176849
57.53 0.16895
57.57 0.188207
57.61 0.191992
57.65 0.18445
57.69 0.167922
57.73 0.139466
57.77 0.111458
57.81 0.0942637
57.85 0.0676956
57.89 0.0596742
57.93 0.0327923
57.97 0.0373333
58.01 0.0749744
58.05 0.0904788
58.09 0.123329
58.13 0.131159
58.17 0.153726
58.21 0.15723
58.25 0.187124
58.29 0.168723
58.33 0.143841
58.37 0.127182
58.41 0.102617
58.45 0.0866709
58.49 0.0620478
58.53 0.0613684
58.57 0.0398233
58.61 0.0316964
58.65 0.0551796
58.69 0.058952
58.73 0.0677781
58.77 0.0590264
58.81 0.0915521
58.85 0.078416
58.89 0.0595637
58.93 0.078833
58.97 0.0600661
59.01 0.0518288
59.05 0.0427679
59.09 0.00245809
59.13 0.0149595
59.17 0.00676326
59.21 0.00376989
59.25 0.00705446
59.29 0.00534691
59.33 -0.00390932
59.37 0.0167377
59.41 0.00973723
59.45 0.000332539
59.49 0.0111742
59.53 0.0319417
59.57 0.0513046
59.61 0.0755377
59.65 0.101426
59.69 0.164027
59.73 0.20785
59.77 0.277276
59.81 0.318288
59.85 0.372122
59.89 0.378268
59.93 0.376411
59.97 0.330391
60.01 0.291309
60.05 0.243309
60.09 0.179593
60.13 0.144355
60.17 0.11298
60.21 0.0908022
60.25 0.0533639
60.29 0.0432057
60.33 0.0348932
60.37 0.00698292
60.41 0.00959822
60.45 -0.0168989
60.49 -0.00388632
60.53 -0.00943381
60.57 0.00141895
60.61 0.000869764
60.65 -0.00320865
60.69 -0.00409963
60.73 0.0118666
60.77 0.0224762
60.81 0.0153181
60.85 0.0316666
60.89 0.0291333
60.93 0.0565745
60.97 0.026762
61.01 0.0373904
61.05 0.0488932
61.09 0.0487194
61.13 0.0477287
61.17 0.0686174
61.21 0.0704287
61.25 0.0851261
61.29 0.108788
61.33 0.106949
61.37 0.0718586
61.41 0.112219
61.45 0.119987
61.49 0.147862
61.53 0.142108
61.57 0.109371
61.61 0.113698
61.65 0.0665525
61.69 0.0727905
61.73 0.0335138
61.77 0.0192054
61.81 0.019091
61.85 0.00151679
61.89 -0.000968442
61.93 -0.00753584
61.97 -0.00544505
62.01 0.00630233
62.05 0.0229138
62.09 0.0306417
62.13 0.0775246
62.17 0.0441042
62.21 0.0621267
62.25 0.0720521
62.29 0.111017
62.33 0.107534
62.37 0.101851
62.41 0.0802929
62.45 0.0794606
62.49 0.0654499
62.53 0.0485745
62.57 0.0445799
62.61 0.0295887
62.65 0.0173753
62.69 0.0228186
62.73 0.0134812
62.77 0.013066
62.81 0.00495562
62.85 0.0260693
62.89 0.0405319
62.93 0.053815
62.97 0.052969
63.01 0.0437602
63.05 0.0205717
63.09 0.0401418
63.13 0.00803162
63.17 -0.000760559
63.21 -0.00637813
63.25 -0.00729667
63.29 -0.000340643
63.33 0.00237936
63.37 0.00518298
63.41 -0.0045314
63.45 0.00910282
63.49 0.0326161
63.53 0.0376592
63.57 0.051677
63.61 0.053576
63.65 0.0882803
63.69 0.0977226
63.73 0.110388
63.77 0.0835006
63.81 0.0695433
63.85 0.0478001
63.89 0.0385275
63.93 0.0382633
63.97 0.00655128
64.01 -0.0128394
64.05 0.00174652
64.09 -0.00300706
64.13 -0.010467
64.17 -0.00337851
64.21 0.00590762
64.25 0.0393749
64.29 0.0820182
64.33 0.143227
64.37 0.17013
64.41 0.192278
64.45 0.186989
64.49 0.189048
64.53 0.182918
64.57 0.217334
64.61 0.2258
64.65 0.203813
64.69 0.181551
64.73 0.15854
64.77 0.121584
64.81 0.0979632
64.85 0.0799255
64.89 0.0489842
64.93 0.0249412
64.97 0.0124636
65.01 -0.00827783
65.05 0.0121578
65.09 -0.00470398
65.13 -0.00582278
65.17 -0.0103272
65.21 -0.0160038
65.25 -0.00115553
65.29 0.00461076
65.33 0.00389611
65.37 0.0239137
65.41 0.0238701
65.45 0.0239044
65.49 0.0276616
65.53 0.0621538
65.57 0.0596807
65.61 0.0721368
65.65 0.087527
65.69 0.0930947
65.73 0.0972664
65.77 0.0886566
65.81 0.0651876
65.85 0.0474855
65.89 0.0418146
65.93 0.0474958
65.97 0.0448354
66.01 0.0445083
66.05 0.0526155
66.09 0.0659266
66.13 0.0602274
66.17 0.066208
66.21 0.0965858
66.25 0.0855939
66.29 0.0626205
66.33 0.0631674
66.37 0.0371921
66.41 0.0367592
66.45 0.0247407
66.49 -0.00484433
66.53 0.0158643
66.57 0.00998088
66.61 0.00278617
66.65 0.0151837
66.69 0.0116438
66.73 0.00330245
66.77 0.00452875
66.81 -0.00426389
66.85 0.000163356
66.89 0.000521986
66.93 0.0120493
66.97 -0.00455749
67.01 -0.0136929
67.05 -0.000178388
67.09 0.00634993
67.13 0.0189337
67.17 0.0246417
67.21 0.0319016
67.25 0.0510288
67.29 0.0605063
67.33 0.0599987
67.37 0.0984778
67.41 0.106282
67.45 0.116902
67.49 0.128482
67.53 0.143923
67.57 0.13797
67.61 0.131235
67.65 0.136443
67.69 0.112165
67.73 0.110753
67.77 0.0955858
67.81 0.0847732
67.85 0.0660053
67.89 0.0526588
67.93 0.0606816
67.97 0.0525266
68.01 0.0423487
68.05 0.0462119
68.09 0.0714062
68.13 0.0712031
68.17 0.0621513
68.21 0.0302565
68.25 0.0517953
68.29 0.0380611
68.33 0.0376756
68.37 0.0345968
68.41 0.0366192
68.45 0.0342368
68.49 0.0231744
68.53 0.00791655
68.57 0.015902
68.61 -0.00486374
68.65 0.00396975
68.69 0.000563299
68.73 -0.00635336
68.77 0.00296103
68.81 -0.0134823
68.85 -0.0153102
68.89 0.00252756
68.93 0.00163834
68.97 -0.00841496
68.995 -0.0156522