File: data/xrd/xy/2019-09-18T20_27_33.741387+00_00_LBL_H1.xy
'Id: "" Comment: "Integrate frame butane14dia1_00_003.gfrmwith cursor Wedge Cursor #1" Operator: "UC Berkeley" Anode: "Co" Scantype: "TwoTheta" TimePerStep: "600"
13.73 -0.0251194
13.77 0.0419686
13.81 0.00804154
13.85 0.0153903
13.89 0.032685
13.93 0.0140944
13.97 0.0239933
14.01 0.01226
14.05 0.0407542
14.09 0.0533965
14.13 0.0748186
14.17 0.0242829
14.21 0.0507175
14.25 0.0812119
14.29 0.0133264
14.33 0.018724
14.37 0.0439567
14.41 0.096636
14.45 -0.00789265
14.49 0.0648893
14.53 0.0179458
14.57 0.0205519
14.61 0.07276
14.65 0.0370424
14.69 0.0804916
14.73 0.0511265
14.77 0.0333271
14.81 0.0307616
14.85 0.028462
14.89 0.0497967
14.93 0.0170197
14.97 0.0577966
15.01 0.0190077
15.05 0.0485389
15.09 0.0618382
15.13 0.0139956
15.17 0.0352137
15.21 0.0230003
15.25 0.0551959
15.29 0.00645431
15.33 0.0622954
15.37 0.0513603
15.41 0.0417153
15.45 0.0260716
15.49 0.0243714
15.53 0.0491952
15.57 0.0726619
15.61 0.0406997
15.65 0.0391127
15.69 0.0440874
15.73 0.0590487
15.77 0.0284201
15.81 0.0212702
15.85 0.0317628
15.89 -0.0105615
15.93 0.0390713
15.97 0.0271331
16.01 0.0182086
16.05 -0.000157569
16.09 0.0123858
16.13 0.00957643
16.17 0.0124562
16.21 0.01982
16.25 0.0245305
16.29 -0.0105977
16.33 -0.0151735
16.37 0.0200325
16.41 0.0328568
16.45 -0.00511437
16.49 0.0286594
16.53 0.027717
16.57 0.0556155
16.61 0.0592429
16.65 0.0967122
16.69 0.0925124
16.73 0.145337
16.77 0.207248
16.81 0.190556
16.85 0.212811
16.89 0.173314
16.93 0.127394
16.97 0.198163
17.01 0.169326
17.05 0.189944
17.09 0.169778
17.13 0.170758
17.17 0.156601
17.21 0.0827799
17.25 0.06489
17.29 0.063245
17.33 0.0521683
17.37 0.000945266
17.41 -0.00478953
17.45 0.0229331
17.49 0.00791298
17.53 0.0351652
17.57 0.0097674
17.61 0.0423637
17.65 5.61429e-06
17.69 0.0130838
17.73 0.00173239
17.77 0.0169229
17.81 0.0245444
17.85 0.0105465
17.89 0.0138625
17.93 0.0434402
17.97 0.0494085
18.01 0.0522362
18.05 0.100483
18.09 0.0731947
18.13 0.138436
18.17 0.252911
18.21 0.386353
18.25 0.719429
18.29 1.12136
18.33 1.60354
18.37 2.01215
18.41 1.93788
18.45 1.61649
18.49 1.08991
18.53 0.689901
18.57 0.417686
18.61 0.270222
18.65 0.142437
18.69 0.0813264
18.73 0.0752655
18.77 0.0856162
18.81 0.0433026
18.85 -0.0034243
18.89 0.0576308
18.93 0.0391439
18.97 0.0437737
19.01 0.0350279
19.05 0.058929
19.09 0.0631324
19.13 0.0313822
19.17 0.0723478
19.21 0.043312
19.25 0.0639215
19.29 0.0721684
19.33 0.0813379
19.37 0.112494
19.41 0.10428
19.45 0.122154
19.49 0.134389
19.53 0.114272
19.57 0.0916492
19.61 0.135489
19.65 0.0377442
19.69 0.0722547
19.73 0.0684694
19.77 0.039491
19.81 -0.00399934
19.85 0.049092
19.89 0.00141327
19.93 0.0265026
19.97 0.0601473
20.01 0.0365639
20.05 0.0456078
20.09 0.0319579
20.13 -0.0205312
20.17 0.0219459
20.21 0.010203
20.25 0.0366803
20.29 0.025488
20.33 0.0532602
20.37 0.0133946
20.41 0.014882
20.45 0.0233357
20.49 0.0165465
20.53 0.0131567
20.57 0.0180714
20.61 0.0394959
20.65 0.0265465
20.69 -0.00818654
20.73 0.0335104
20.77 0.0604496
20.81 0.0088924
20.85 0.00966336
20.89 0.0336086
20.93 0.0460018
20.97 0.0205652
21.01 0.00812101
21.05 0.0408605
21.09 0.0120823
21.13 -0.00316575
21.17 0.0231991
21.21 0.00187245
21.25 0.0534527
21.29 0.0231985
21.33 0.0341692
21.37 0.0357928
21.41 0.0346413
21.45 -0.00801561
21.49 0.0214912
21.53 0.0259721
21.57 0.0086998
21.61 0.0395836
21.65 0.0193228
21.69 0.00619765
21.73 0.0387635
21.77 0.0434541
21.81 0.0390975
21.85 -0.00148498
21.89 0.0327208
21.93 0.0220201
21.97 0.0334138
22.01 0.0392021
22.05 0.0538747
22.09 0.00969769
22.13 0.0530668
22.17 0.0565039
22.21 0.0143176
22.25 0.019217
22.29 0.0402076
22.33 -0.0164974
22.37 0.0112508
22.41 0.0181283
22.45 0.0132132
22.49 0.0215943
22.53 0.031197
22.57 -0.0129373
22.61 -0.00607304
22.65 0.00274818
22.69 0.0341361
22.73 0.0169725
22.77 0.0367445
22.81 0.0292586
22.85 0.0236878
22.89 0.0115546
22.93 0.0242113
22.97 0.0261154
23.01 0.00867644
23.05 0.0276924
23.09 0.00903177
23.13 0.0375277
23.17 0.0167812
23.21 0.0238135
23.25 0.0606907
23.29 0.0504061
23.33 0.0462297
23.37 0.0405573
23.41 0.0884373
23.45 0.0842506
23.49 0.0898301
23.53 0.18834
23.57 0.190674
23.61 0.282164
23.65 0.331319
23.69 0.374511
23.73 0.321161
23.77 0.278452
23.81 0.20805
23.85 0.112849
23.89 0.0728864
23.93 0.0522327
23.97 0.062944
24.01 0.0603724
24.05 0.0919695
24.09 0.0860067
24.13 0.0798739
24.17 0.136724
24.21 0.132517
24.25 0.150993
24.29 0.148924
24.33 0.283704
24.37 0.359459
24.41 0.677559
24.45 1.20862
24.49 2.27138
24.53 3.91373
24.57 6.03173
24.61 7.70968
24.65 8.1518
24.69 6.70257
24.73 4.19369
24.77 2.08069
24.81 0.868583
24.85 0.417304
24.89 0.240918
24.93 0.16993
24.97 0.109936
25.01 0.0900494
25.05 0.0457715
25.09 0.0662867
25.13 0.0525331
25.17 0.0401536
25.21 0.051894
25.25 0.0637727
25.29 0.00373888
25.33 0.0200487
25.37 0.0505544
25.41 0.0192191
25.45 0.0442935
25.49 0.032524
25.53 0.0238281
25.57 0.0193801
25.61 0.0155274
25.65 0.0220749
25.69 0.00138295
25.73 0.0146872
25.77 0.0147742
25.81 0.00420055
25.85 0.0407958
25.89 0.00547522
25.93 0.0532584
25.97 0.0324848
26.01 0.00694207
26.05 0.0115601
26.09 -0.00885069
26.13 0.0165172
26.17 0.0109768
26.21 0.0277088
26.25 -0.000938402
26.29 0.0179363
26.33 0.0285379
26.37 0.0405941
26.41 -0.0038288
26.45 -0.000881759
26.49 0.0463785
26.53 0.0841741
26.57 0.105718
26.61 0.120807
26.65 0.137342
26.69 0.145055
26.73 0.168266
26.77 0.177544
26.81 0.16806
26.85 0.210741
26.89 0.133713
26.93 0.117905
26.97 0.0844375
27.01 0.0675845
27.05 0.0513322
27.09 0.0448457
27.13 0.0119916
27.17 0.0445857
27.21 0.00226872
27.25 0.041419
27.29 0.0163236
27.33 0.0199572
27.37 0.0475418
27.41 0.0565174
27.45 0.0415051
27.49 0.0472603
27.53 0.0729913
27.57 0.09849
27.61 0.103242
27.65 0.0953012
27.69 0.140003
27.73 0.0737674
27.77 0.0790568
27.81 0.0834932
27.85 0.0630919
27.89 0.0462857
27.93 0.0473289
27.97 0.0521214
28.01 0.0477013
28.05 0.0541991
28.09 0.0433098
28.13 0.0632113
28.17 0.0598675
28.21 0.0499658
28.25 0.0668214
28.29 0.0808234
28.33 0.12697
28.37 0.133958
28.41 0.130042
28.45 0.146897
28.49 0.141492
28.53 0.138491
28.57 0.0966637
28.61 0.0629814
28.65 0.0521355
28.69 0.0678653
28.73 0.00829814
28.77 0.0163155
28.81 0.0302385
28.85 -0.0117868
28.89 0.0355736
28.93 0.0237454
28.97 0.0253961
29.01 0.0405274
29.05 0.0555326
29.09 0.0285338
29.13 0.0281998
29.17 0.0471784
29.21 0.0481726
29.25 0.00987126
29.29 0.0102376
29.33 0.00323244
29.37 0.036169
29.41 0.0167123
29.45 0.0134092
29.49 0.012971
29.53 -0.00201734
29.57 -0.00383347
29.61 0.0162694
29.65 0.0121883
29.69 0.0620008
29.73 0.0215235
29.77 0.040864
29.81 0.0248448
29.85 0.057513
29.89 0.0423542
29.93 0.056378
29.97 0.0772872
30.01 0.120934
30.05 0.147106
30.09 0.142072
30.13 0.172723
30.17 0.195763
30.21 0.164918
30.25 0.155781
30.29 0.164805
30.33 0.179448
30.37 0.188577
30.41 0.188889
30.45 0.231971
30.49 0.289963
30.53 0.341587
30.57 0.465996
30.61 0.53877
30.65 0.743104
30.69 1.14033
30.73 1.99348
30.77 3.42698
30.81 6.2835
30.85 10.5321
30.89 15.0557
30.93 18.1095
30.97 17.8866
31.01 14.2572
31.05 9.29171
31.09 4.86522
31.13 2.39077
31.17 1.16189
31.21 0.669804
31.25 0.472672
31.29 0.371577
31.33 0.323992
31.37 0.304856
31.41 0.2252
31.45 0.205292
31.49 0.181102
31.53 0.159675
31.57 0.198711
31.61 0.206137
31.65 0.301878
31.69 0.386698
31.73 0.421619
31.77 0.481784
31.81 0.46258
31.85 0.343187
31.89 0.275728
31.93 0.183847
31.97 0.140305
32.01 0.0866333
32.05 0.0591291
32.09 0.0655697
32.13 0.0419813
32.17 0.0236097
32.21 0.00880363
32.25 0.0252902
32.29 0.013919
32.33 0.000373792
32.37 0.00668795
32.41 0.0124282
32.45 0.0149152
32.49 -0.00523346
32.53 -0.0113376
32.57 -0.0115168
32.61 -0.0128929
32.65 -0.00621581
32.69 -0.00886031
32.73 0.0108312
32.77 0.00624622
32.81 0.0108574
32.85 -0.00979758
32.89 0.00551786
32.93 0.0247009
32.97 0.0444282
33.01 0.0503501
33.05 0.0649696
33.09 0.0494775
33.13 0.0984674
33.17 0.123604
33.21 0.214588
33.25 0.283319
33.29 0.34012
33.33 0.430565
33.37 0.443623
33.41 0.376569
33.45 0.31417
33.49 0.298388
33.53 0.287106
33.57 0.295825
33.61 0.354504
33.65 0.448622
33.69 0.603389
33.73 0.664174
33.77 0.646008
33.81 0.608541
33.85 0.563515
33.89 0.438534
33.93 0.42199
33.97 0.368961
34.01 0.349232
34.05 0.285753
34.09 0.274994
34.13 0.186754
34.17 0.134806
34.21 0.0909173
34.25 0.0664684
34.29 0.028713
34.33 0.0424241
34.37 0.0313724
34.41 0.0258842
34.45 0.0489133
34.49 0.0751553
34.53 0.086927
34.57 0.115925
34.61 0.125598
34.65 0.12941
34.69 0.117501
34.73 0.0904945
34.77 0.0634624
34.81 0.0364424
34.85 0.0205016
34.89 0.0244058
34.93 -0.01228
34.97 -0.00180555
35.01 0.00681574
35.05 -0.00216417
35.09 -0.0233915
35.13 0.00793949
35.17 0.000429352
35.21 0.000960114
35.25 0.00774754
35.29 0.0214355
35.33 0.0256567
35.37 0.0465269
35.41 0.0249339
35.45 0.0290222
35.49 0.0134345
35.53 -0.00467255
35.57 -0.00327687
35.61 0.00351947
35.65 -0.0175309
35.69 -0.013469
35.73 -0.00646217
35.77 0.0124197
35.81 -0.0126818
35.85 -0.00802154
35.89 -0.00887303
35.93 -0.0138836
35.97 -0.0112754
36.01 -0.00809467
36.05 -0.0117157
36.09 -0.0121404
36.13 -0.000690564
36.17 -0.00261085
36.21 0.00625725
36.25 -0.0142833
36.29 -0.00167385
36.33 -0.00628737
36.37 0.0207408
36.41 0.00833174
36.45 0.0263833
36.49 0.00797648
36.53 0.01735
36.57 0.0338202
36.61 0.0478419
36.65 0.0477471
36.69 0.0759258
36.73 0.079198
36.77 0.0865222
36.81 0.10273
36.85 0.152141
36.89 0.17612
36.93 0.236807
36.97 0.318697
37.01 0.460937
37.05 0.679421
37.09 1.06312
37.13 1.69456
37.17 2.60846
37.21 3.88127
37.25 5.25569
37.29 6.40488
37.33 6.92685
37.37 6.59193
37.41 5.58606
37.45 4.17282
37.49 2.72729
37.53 1.6776
37.57 1.03129
37.61 0.701845
37.65 0.570387
37.69 0.515463
37.73 0.564517
37.77 0.601492
37.81 0.647975
37.85 0.678488
37.89 0.697943
37.93 0.701468
37.97 0.655317
38.01 0.622993
38.05 0.53959
38.09 0.492027
38.13 0.478511
38.17 0.440873
38.21 0.379697
38.25 0.36055
38.29 0.327661
38.33 0.324901
38.37 0.304245
38.41 0.244006
38.45 0.210437
38.49 0.201139
38.53 0.161853
38.57 0.172067
38.61 0.15756
38.65 0.135264
38.69 0.172522
38.73 0.166798
38.77 0.197296
38.81 0.249657
38.85 0.316218
38.89 0.362708
38.93 0.461343
38.97 0.504156
39.01 0.541115
39.05 0.544689
39.09 0.508695
39.13 0.467028
39.17 0.388391
39.21 0.302202
39.25 0.281994
39.29 0.239383
39.33 0.192059
39.37 0.166667
39.41 0.133222
39.45 0.107238
39.49 0.0971766
39.53 0.0755823
39.57 0.0642055
39.61 0.0587071
39.65 0.0581075
39.69 0.0523412
39.73 0.0746127
39.77 0.0611756
39.81 0.0398913
39.85 0.0379182
39.89 0.0128168
39.93 0.0103332
39.97 0.00821604
40.01 0.00790335
40.05 0.00726975
40.09 0.0166284
40.13 -0.0067069
40.17 0.0147892
40.21 -0.0140919
40.25 0.000754345
40.29 -0.010358
40.33 -0.00435807
40.37 -0.00526506
40.41 0.00699315
40.45 -0.00390218
40.49 0.0131938
40.53 -0.00240133
40.57 0.0283542
40.61 0.0235681
40.65 0.0358391
40.69 0.0587888
40.73 0.0495216
40.77 0.0587492
40.81 0.0689752
40.85 0.0870296
40.89 0.079819
40.93 0.0723614
40.97 0.0789775
41.01 0.0849058
41.05 0.101698
41.09 0.0944299
41.13 0.0944475
41.17 0.0608509
41.21 0.0596544
41.25 0.0609695
41.29 0.0317927
41.33 0.0365986
41.37 0.0522678
41.41 0.0293536
41.45 0.0139123
41.49 0.0156254
41.53 0.0108477
41.57 -0.00176859
41.61 0.00169226
41.65 0.000407433
41.69 -0.0187845
41.73 -0.00295777
41.77 -0.00901397
41.81 0.00257808
41.85 0.0185345
41.89 0.00866543
41.93 0.00315424
41.97 -0.00762979
42.01 -0.00186172
42.05 -0.00688902
42.09 0.00499485
42.13 0.00335036
42.17 0.0212801
42.21 0.00885861
42.25 0.0182834
42.29 -0.000495015
42.33 -0.0087265
42.37 0.0212828
42.41 0.0140427
42.45 0.0235767
42.49 0.0241769
42.53 0.0239812
42.57 0.0195101
42.61 0.0285251
42.65 0.039966
42.69 0.0309556
42.73 0.0123635
42.77 -0.0029344
42.81 0.0134477
42.85 0.020086
42.89 0.0458754
42.93 0.0428453
42.97 0.0354106
43.01 0.0786175
43.05 0.0783221
43.09 0.124066
43.13 0.13322
43.17 0.177531
43.21 0.176496
43.25 0.228245
43.29 0.213222
43.33 0.238703
43.37 0.213265
43.41 0.240586
43.45 0.192969
43.49 0.182615
43.53 0.157941
43.57 0.21414
43.61 0.287811
43.65 0.386135
43.69 0.495688
43.73 0.687228
43.77 0.783883
43.81 0.867877
43.85 0.866175
43.89 0.811254
43.93 0.685344
43.97 0.522347
44.01 0.386537
44.05 0.225195
44.09 0.136861
44.13 0.0640066
44.17 0.0377346
44.21 0.00527495
44.25 0.0199595
44.29 0.0174205
44.33 0.0311173
44.37 0.0174555
44.41 0.0403671
44.45 0.0599475
44.49 0.0611811
44.53 0.0314886
44.57 0.0493862
44.61 0.0489848
44.65 0.0574955
44.69 0.0671661
44.73 0.0509004
44.77 0.062578
44.81 0.0750697
44.85 0.0910659
44.89 0.0945211
44.93 0.111752
44.97 0.136677
45.01 0.136427
45.05 0.145225
45.09 0.15061
45.13 0.162502
45.17 0.121998
45.21 0.127731
45.25 0.123173
45.29 0.0603533
45.33 0.0592708
45.37 0.0364764
45.41 0.0185639
45.45 0.0193236
45.49 0.0146991
45.53 0.00577512
45.57 -0.00698198
45.61 -0.000749117
45.65 -0.00121004
45.69 -0.0130271
45.73 0.00716368
45.77 0.00302182
45.81 0.0272615
45.85 0.0155305
45.89 0.0191163
45.93 0.0120573
45.97 0.013682
46.01 0.0178059
46.05 0.0237108
46.09 0.0234466
46.13 0.0171017
46.17 -0.00574648
46.21 0.0157968
46.25 0.00343924
46.29 0.0171236
46.33 0.00249702
46.37 0.010995
46.41 0.00855619
46.45 0.0144483
46.49 -0.00525853
46.53 -0.00671853
46.57 -0.00517449
46.61 -0.0148112
46.65 -0.00857811
46.69 0.00437609
46.73 -0.0100102
46.77 0.0146093
46.81 0.00116278
46.85 0.00863527
46.89 0.0241952
46.93 0.0375679
46.97 0.0374647
47.01 0.0505059
47.05 0.059165
47.09 0.0397341
47.13 0.047008
47.17 0.0393019
47.21 0.0151163
47.25 0.0175305
47.29 0.0178019
47.33 0.0349671
47.37 0.0391759
47.41 0.0464737
47.45 0.0820147
47.49 0.07989
47.53 0.122374
47.57 0.139365
47.61 0.156125
47.65 0.183151
47.69 0.204245
47.73 0.194612
47.77 0.189913
47.81 0.160439
47.85 0.159128
47.89 0.116615
47.93 0.1036
47.97 0.0731803
48.01 0.060318
48.05 0.0629064
48.09 0.0352009
48.13 0.0559142
48.17 0.0478422
48.21 0.0569786
48.25 0.0568125
48.29 0.0465685
48.33 0.0517597
48.37 0.0605158
48.41 0.0504707
48.45 0.041665
48.49 0.0401042
48.53 0.0637757
48.57 0.0324505
48.61 0.0320184
48.65 0.0371524
48.69 0.0141221
48.73 0.0173535
48.77 0.00268389
48.81 -0.010021
48.85 -0.0026959
48.89 -0.00244966
48.93 -0.0180054
48.97 -0.000308458
49.01 -0.00452041
49.05 -0.00999245
49.09 0.0123763
49.13 0.0180529
49.17 0.0169292
49.21 0.0266552
49.25 0.0301958
49.29 0.0292285
49.33 0.0510513
49.37 0.062426
49.41 0.0665009
49.45 0.0674784
49.49 0.0755503
49.53 0.0879863
49.57 0.0944138
49.61 0.0941889
49.65 0.118754
49.69 0.147698
49.73 0.162866
49.77 0.188094
49.81 0.199944
49.85 0.21445
49.89 0.229593
49.93 0.23299
49.97 0.206965
50.01 0.203356
50.05 0.194243
50.09 0.190116
50.13 0.177889
50.17 0.145288
50.21 0.119934
50.25 0.126055
50.29 0.0943478
50.33 0.0760581
50.37 0.0703109
50.41 0.0631457
50.45 0.0666765
50.49 0.0376899
50.53 0.0421858
50.57 0.0378358
50.61 0.0444697
50.65 0.0374769
50.69 0.0348594
50.73 0.0390333
50.77 0.0247835
50.81 0.0256749
50.85 0.0364319
50.89 0.0475441
50.93 0.0396047
50.97 0.0579559
51.01 0.0492211
51.05 0.0618355
51.09 0.0785745
51.13 0.0835342
51.17 0.0788886
51.21 0.0708857
51.25 0.0739709
51.29 0.0547569
51.33 0.0358677
51.37 0.0402421
51.41 0.0342275
51.45 0.0214752
51.49 0.00938989
51.53 -0.00313226
51.57 0.00223855
51.61 -0.00410747
51.65 -0.000945534
51.69 0.00591792
51.73 -0.0113518
51.77 -0.0115464
51.81 -0.0153215
51.85 -0.00230996
51.89 0.00656856
51.93 -0.00527512
51.97 0.00301149
52.01 0.00352194
52.05 0.0191087
52.09 0.0200427
52.13 0.03418
52.17 0.0339089
52.21 0.0591682
52.25 0.0631327
52.29 0.0724974
52.33 0.0925977
52.37 0.112364
52.41 0.124993
52.45 0.142199
52.49 0.14232
52.53 0.152703
52.57 0.165591
52.61 0.156625
52.65 0.142369
52.69 0.125843
52.73 0.122034
52.77 0.0961226
52.81 0.0870383
52.85 0.047821
52.89 0.0368086
52.93 0.0420818
52.97 0.0164819
53.01 0.0213555
53.05 0.00212739
53.09 0.00149091
53.13 -0.00977632
53.17 -0.00857029
53.21 -0.00735841
53.25 0.00381167
53.29 -0.00583416
53.33 -0.0029677
53.37 -0.0140255
53.41 -0.000154798
53.45 -0.00614216
53.49 -0.0117188
53.53 0.00515555
53.57 0.00584386
53.61 0.00308797
53.65 0.0281677
53.69 0.0152245
53.73 0.0307425
53.77 0.0268827
53.81 0.0115441
53.85 0.0211039
53.89 0.00790017
53.93 0.0348299
53.97 0.0250402
54.01 0.0152373
54.05 0.0122847
54.09 0.00146017
54.13 0.0138832
54.17 0.00243513
54.21 0.00825303
54.25 -0.000179099
54.29 0.00419198
54.33 0.0286271
54.37 0.0295684
54.41 0.0369596
54.45 0.0550192
54.49 0.0709811
54.53 0.0961311
54.57 0.114676
54.61 0.132994
54.65 0.13193
54.69 0.125702
54.73 0.130062
54.77 0.146739
54.81 0.137069
54.85 0.118672
54.89 0.098032
54.93 0.0756624
54.97 0.0571793
55.01 0.0541364
55.05 0.0584056
55.09 0.0369092
55.13 0.0247239
55.17 0.0315247
55.21 0.0139478
55.25 0.0125372
55.29 0.00491881
55.33 -0.0030287
55.37 0.0161436
55.41 0.00506501
55.45 0.00608754
55.49 0.00836899
55.53 -0.0139035
55.57 0.00145008
55.61 0.00991959
55.65 -0.0139121
55.69 0.00749214
55.73 0.00819341
55.77 -0.00667833
55.81 0.00323204
55.85 0.0193716
55.89 -0.0179756
55.93 -0.000544621
55.97 0.00638946
56.01 0.00412691
56.05 0.00739432
56.09 0.00810039
56.13 0.00175259
56.17 0.0121396
56.21 -0.000159244
56.25 0.015108
56.29 0.0134469
56.33 0.0180078
56.37 0.0288141
56.41 0.0229238
56.45 0.036053
56.49 0.0387804
56.53 0.0316087
56.57 0.0420696
56.61 0.0234936
56.65 0.0170434
56.69 0.00797608
56.73 -0.0014893
56.77 0.0156516
56.81 -0.0183775
56.85 0.00351797
56.89 0.00559373
56.93 -0.0129563
56.97 0.0107943
57.01 -0.000891877
57.05 0.0119543
57.09 0.0459049
57.13 0.0615801
57.17 0.0682709
57.21 0.0860195
57.25 0.0808978
57.29 0.0912157
57.33 0.102712
57.37 0.131665
57.41 0.122985
57.45 0.130552
57.49 0.0958051
57.53 0.0968979
57.57 0.0752093
57.61 0.0487651
57.65 0.0425535
57.69 0.0134548
57.73 0.0056943
57.77 0.00731864
57.81 0.00800447
57.85 -0.00762534
57.89 -0.0150894
57.93 -0.00963649
57.97 0.00371967
58.01 0.0245975
58.05 0.00327116
58.09 0.00274386
58.13 0.00772854
58.17 0.0125958
58.21 0.0122031
58.25 0.0233249
58.29 0.0305745
58.33 0.0501875
58.37 0.0391968
58.41 0.0297155
58.45 0.03794
58.49 0.0428356
58.53 0.0478228
58.57 0.046296
58.61 0.0475541
58.65 0.0311009
58.69 0.0594296
58.73 0.0350936
58.77 0.0298284
58.81 0.0260752
58.85 0.0261495
58.89 0.026781
58.93 0.0418655
58.97 -0.000610812
59.01 0.0185995
59.05 0.0103557
59.09 0.00296808
59.13 0.0197277
59.17 -0.00207874
59.21 -0.00981908
59.25 0.00894291
59.29 -0.0011355
59.33 -0.00607342
59.37 -0.00408605
59.41 -0.00709898
59.45 -0.0166777
59.49 0.00381178
59.53 -0.00549016
59.57 0.0170571
59.61 0.00929573
59.65 0.00644322
59.69 0.0195532
59.73 0.030957
59.77 0.0262573
59.81 0.0158903
59.85 0.0135304
59.89 0.0314525
59.93 0.023565
59.97 0.035336
60.01 0.0413148
60.05 0.0487986
60.09 0.0283069
60.13 0.0275366
60.17 0.0409112
60.21 0.03141
60.25 0.0495434
60.29 0.0200924
60.33 0.0120873
60.37 0.00551128
60.41 0.0251561
60.45 0.00717902
60.49 0.00581161
60.53 0.0129283
60.57 -0.00999052
60.61 0.0147447
60.65 -0.0156906
60.69 0.0143608
60.73 -0.0125924
60.77 -0.00833835
60.81 0.00354855
60.85 -0.000457453
60.89 -0.0021469
60.93 -0.00634761
60.97 0.0111883
61.01 -0.00131426
61.05 0.00387693
61.09 -0.00443471
61.13 -0.00335977
61.17 0.000639879
61.21 0.00492767
61.25 0.00641609
61.29 0.00982279
61.33 0.00333202
61.37 -0.00507644
61.41 0.0162975
61.45 -0.000910227
61.49 0.0117734
61.53 -0.000315329
61.57 -0.00227819
61.61 0.00478652
61.65 0.0037043
61.69 0.00827056
61.73 -0.004856
61.77 0.0140358
61.81 0.0083918
61.85 0.017858
61.89 0.00603533
61.93 -0.00468537
61.97 -0.00422582
62.01 0.0291427
62.05 0.00485335
62.09 0.0121864
62.13 -0.00207413
62.17 0.0216924
62.21 0.0506203
62.25 0.0191428
62.29 0.0402569
62.33 0.0680756
62.37 0.0498784
62.41 0.0598303
62.45 0.0537252
62.49 0.0503587
62.53 0.0635616
62.57 0.0689126
62.61 0.087095
62.65 0.0849593
62.69 0.0825091
62.73 0.0727571
62.77 0.0872317
62.81 0.0735778
62.85 0.0476036
62.89 0.0446975
62.93 0.0573233
62.97 0.0505573
63.01 0.0443134
63.05 0.0464172
63.09 0.0297961
63.13 0.0229989
63.17 0.039014
63.21 0.0283958
63.25 0.0235998
63.29 0.0188914
63.33 0.0217871
63.37 0.018552
63.41 -0.000353358
63.45 -0.000653751
63.49 -0.00443706
63.53 -0.0152323
63.57 -0.00310189
63.61 -0.00644717
63.65 0.0191134
63.69 -0.012938
63.73 -0.00762736
63.77 -0.00899896
63.81 0.00690936
63.85 -0.00229104
63.89 0.00922387
63.93 -0.00192338
63.97 0.0291062
64.01 0.0261785
64.05 0.0665144
64.09 0.059116
64.13 0.0712162
64.17 0.0891568
64.21 0.0968944
64.25 0.133107
64.29 0.131919
64.33 0.12299
64.37 0.135425
64.41 0.146031
64.45 0.13418
64.49 0.159017
64.53 0.158725
64.57 0.185262
64.61 0.162934
64.65 0.160526
64.69 0.150751
64.73 0.158625
64.77 0.120216
64.81 0.117251
64.85 0.100747
64.89 0.0752022
64.93 0.0554821
64.97 0.0400828
65.01 0.0215259
65.05 0.0260867
65.09 -0.0103188
65.13 0.0139895
65.17 0.00336666
65.21 0.0106332
65.25 0.00694043
65.29 0.0135959
65.33 0.00719173
65.37 0.00540549
65.41 -0.00447474
65.45 0.00224985
65.49 0.0054982
65.53 -0.00126662
65.57 0.00478462
65.61 0.00365729
65.65 0.00860714
65.69 -0.00796198
65.73 0.00179597
65.77 0.00463446
65.81 0.0116338
65.85 0.00782929
65.89 -0.0175338
65.93 0.0165133
65.97 0.015159
66.01 0.00369153
66.05 0.0214866
66.09 0.0245249
66.13 0.0296296
66.17 0.0237072
66.21 0.0287427
66.25 0.0328743
66.29 0.0400809
66.33 0.0464718
66.37 0.0392824
66.41 0.0506563
66.45 0.0375592
66.49 0.045125
66.53 0.0290332
66.57 0.0561109
66.61 0.0368156
66.65 0.0378136
66.69 0.0610961
66.73 0.0254223
66.77 0.0376423
66.81 0.0349466
66.85 0.0130939
66.89 0.0205698
66.93 0.0234394
66.97 -0.0036171
67.01 0.00644512
67.05 0.0108303
67.09 0.00433146
67.13 0.00119025
67.17 -0.00454217
67.21 0.00399263
67.25 -0.0153365
67.29 0.0041812
67.33 -0.00526685
67.37 0.00317487
67.41 -0.00115533
67.45 0.00388931
67.49 0.00112149
67.53 -0.00245736
67.57 0.00997101
67.61 0.00817478
67.65 0.0162556
67.69 0.0135935
67.73 0.0023565
67.77 0.0128244
67.81 0.00751821
67.85 -0.00320974
67.89 -0.0162008
67.93 0.028542
67.97 0.010939
68.01 0.0195545
68.05 -0.0155564
68.09 -0.0129562
68.13 -0.00780546
68.17 -0.00718464
68.21 0.00855932
68.25 0.0057632
68.29 -0.0036026
68.33 -0.0120105
68.37 -0.00732882
68.41 -0.00561146
68.45 0.00185938
68.49 -0.00625422
68.53 -0.0110639
68.57 -0.0101318
68.61 0.0104136
68.65 -0.00527865
68.69 -0.00418939
68.73 -0.0170193
68.77 -0.00203842
68.81 -0.00497138
68.85 -0.0140862
68.89 -0.0150317
68.93 0.0110188
68.97 -0.0141446
69.01 0.0152762
69.05 0.00082488
69.09 0.00833109
69.13 0.00613166
69.17 0.0164029
69.21 0.00831246
69.25 0.0285527
69.29 0.0438881
69.33 0.051792
69.37 0.0657711
69.41 0.074825
69.45 0.0570368
69.49 0.0563423
69.53 0.057747
69.57 0.0582723
69.61 0.0672473
69.65 0.0785212
69.69 0.0822638
69.73 0.0873144
69.77 0.113684
69.81 0.103892
69.85 0.0750448
69.89 0.0887809
69.93 0.0733356
69.97 0.0628313
70.01 0.0615256
70.05 0.0199016
70.09 0.0351211
70.13 -0.00382778
70.17 -0.00345624
70.21 0.00124048
70.25 -0.0112136
70.27 -0.0185105