File: data/xrd/xy/2019-04-10T15_37_43.338519+00_00_LBL.xy
'Id: "" Comment: "Integrate frame EtABr_EtA2I_03_001.gfrmwith cursor Wedge Cursor #4" Operator: "UC Berkeley" Anode: "Co" Scantype: "TwoTheta" TimePerStep: "400"
14.095 -0.0327482
14.135 -0.00746929
14.175 -0.0200415
14.215 0.0518992
14.255 0.0614708
14.295 0.0119026
14.335 0.0391918
14.375 -0.023472
14.415 0.0916387
14.455 0.0497162
14.495 0.023478
14.535 0.00252364
14.575 0.0255553
14.615 0.00827571
14.655 -0.00416493
14.695 0.0407476
14.735 0.0138969
14.775 0.0192962
14.815 0.0638315
14.855 0.0698146
14.895 0.00839345
14.935 0.0824176
14.975 0.08286
15.015 0.0613689
15.055 0.00984637
15.095 0.0321926
15.135 0.066484
15.175 0.0378055
15.215 0.057869
15.255 0.0454282
15.295 0.0827908
15.335 0.0493085
15.375 0.074249
15.415 0.0699217
15.455 0.0745537
15.495 0.0607422
15.535 0.0685007
15.575 0.0190292
15.615 0.0884317
15.655 0.102039
15.695 0.0859827
15.735 0.071629
15.775 0.0812386
15.815 0.0423482
15.855 0.0345797
15.895 0.0494429
15.935 0.0547023
15.975 0.0762061
16.015 0.02638
16.055 0.038889
16.095 0.0371822
16.135 0.0136583
16.175 0.0217378
16.215 0.0292459
16.255 0.0242859
16.295 0.0296113
16.335 0.0703079
16.375 0.0220281
16.415 0.0744732
16.455 0.0323683
16.495 0.0397058
16.535 0.0566396
16.575 0.0416898
16.615 0.036251
16.655 -0.0120223
16.695 0.0419525
16.735 0.0400111
16.775 0.0557206
16.815 0.0151794
16.855 0.0282552
16.895 0.0937005
16.935 0.0595332
16.975 0.0153878
17.015 0.0234934
17.055 0.0825942
17.095 0.0367607
17.135 0.0299241
17.175 0.0512796
17.215 0.0697781
17.255 0.0433329
17.295 0.0198994
17.335 0.0275665
17.375 0.0662111
17.415 0.0429071
17.455 0.0253732
17.495 0.0694355
17.535 0.0503285
17.575 0.0537916
17.615 0.014457
17.655 0.0547283
17.695 0.0978163
17.735 0.0734605
17.775 0.0400682
17.815 0.0663528
17.855 0.0678446
17.895 0.0405185
17.935 0.0564595
17.975 0.011804
18.015 0.0402418
18.055 0.0290957
18.095 0.0693296
18.135 0.0408738
18.175 0.0823474
18.215 0.0458122
18.255 0.0708138
18.295 0.0566423
18.335 0.13133
18.375 0.158233
18.415 0.141267
18.455 0.158719
18.495 0.165499
18.535 0.110203
18.575 0.13294
18.615 0.114675
18.655 0.107102
18.695 0.0610151
18.735 0.06853
18.775 0.0659644
18.815 0.0383682
18.855 0.0307441
18.895 0.056843
18.935 0.0332234
18.975 0.0501159
19.015 -0.0130582
19.055 0.152552
19.095 0.0861486
19.135 0.0419946
19.175 0.0128316
19.215 0.0599118
19.255 0.0379042
19.295 0.0342009
19.335 0.000904647
19.375 0.0324586
19.415 0.0366367
19.455 0.00780774
19.495 0.0270979
19.535 0.0499971
19.575 0.0622782
19.615 0.0368291
19.655 0.0818795
19.695 0.020825
19.735 0.031214
19.775 0.0297146
19.815 0.0979782
19.855 0.04738
19.895 0.0327812
19.935 0.00756008
19.975 0.00716294
20.015 0.0703559
20.055 0.0971261
20.095 0.0382423
20.135 0.0520894
20.175 0.0320958
20.215 0.0521154
20.255 0.0395012
20.295 0.0195568
20.335 0.0815591
20.375 0.0508371
20.415 0.0221947
20.455 0.0182937
20.495 0.0424911
20.535 0.0138195
20.575 0.0576255
20.615 0.0206851
20.655 0.015109
20.695 0.0160356
20.735 0.0223344
20.775 0.0306169
20.815 0.0571373
20.855 0.0152221
20.895 0.0562728
20.935 0.0519348
20.975 0.0572865
21.015 0.0301737
21.055 0.029291
21.095 0.0473527
21.135 -0.0111367
21.175 0.00796447
21.215 0.00223602
21.255 0.023097
21.295 0.060886
21.335 0.0368281
21.375 0.0771163
21.415 0.0462857
21.455 0.00539341
21.495 -0.0129881
21.535 0.0361088
21.575 0.0322432
21.615 0.0234417
21.655 -0.0222273
21.695 0.0227595
21.735 0.0444391
21.775 0.030565
21.815 0.035197
21.855 0.014615
21.895 -0.00799786
21.935 0.0319478
21.975 0.0594408
22.015 0.077575
22.055 0.00455392
22.095 -0.00987773
22.135 0.023808
22.175 0.0167209
22.215 0.0587823
22.255 0.0350124
22.295 0.0379427
22.335 0.0470727
22.375 0.039728
22.415 0.0214203
22.455 0.0517929
22.495 0.0767025
22.535 0.0332126
22.575 0.0264083
22.615 0.018483
22.655 0.0284778
22.695 0.0183585
22.735 -0.015238
22.775 0.0333581
22.815 -0.000228014
22.855 0.00432934
22.895 -0.00563772
22.935 0.0110325
22.975 0.0269624
23.015 0.0696115
23.055 0.0580111
23.095 0.0344151
23.135 0.0863663
23.175 0.0442127
23.215 0.0792665
23.255 0.0822081
23.295 0.0942282
23.335 0.113853
23.375 0.154818
23.415 0.249924
23.455 0.296558
23.495 0.344125
23.535 0.295702
23.575 0.213603
23.615 0.158505
23.655 0.0803806
23.695 0.0902611
23.735 0.0436088
23.775 0.0496549
23.815 0.0657347
23.855 0.0341063
23.895 0.0156625
23.935 0.0405226
23.975 0.0239646
24.015 0.0355233
24.055 0.01407
24.095 0.0101534
24.135 0.000638147
24.175 0.0385061
24.215 0.0224845
24.255 0.0149526
24.295 0.0838251
24.335 0.0484846
24.375 0.0286549
24.415 -0.00278868
24.455 -0.0222309
24.495 0.00634029
24.535 0.0168205
24.575 0.0548642
24.615 -0.00795111
24.655 0.00829923
24.695 0.0264445
24.735 -0.000738193
24.775 0.0119239
24.815 0.00929182
24.855 0.00341577
24.895 0.0607377
24.935 0.0440532
24.975 -0.00469027
25.015 0.00990964
25.055 0.0334725
25.095 0.0953044
25.135 0.111882
25.175 0.232546
25.215 0.326506
25.255 0.363926
25.295 0.260356
25.335 0.17911
25.375 0.115454
25.415 0.0531602
25.455 0.0236311
25.495 0.0344709
25.535 0.0356157
25.575 0.0371535
25.615 0.00711953
25.655 0.00367357
25.695 0.0414317
25.735 0.025823
25.775 -0.0145935
25.815 -0.0168805
25.855 0.0330904
25.895 0.00255937
25.935 0.0174088
25.975 0.0150728
26.015 -0.0144014
26.055 0.0140012
26.095 0.0303699
26.135 -0.00836448
26.175 0.023701
26.215 0.0534712
26.255 0.0150437
26.295 0.0176612
26.335 0.00887816
26.375 0.0124421
26.415 0.0204135
26.455 0.0571115
26.495 -4.07778e-05
26.535 0.0552722
26.575 0.0359099
26.615 0.0437498
26.655 0.0205825
26.695 0.0393413
26.735 -0.000427954
26.775 0.0225615
26.815 0.0180366
26.855 0.0621881
26.895 0.00361013
26.935 0.020885
26.975 0.0334265
27.015 0.0344371
27.055 0.0446352
27.095 0.00888733
27.135 0.031676
27.175 0.0217369
27.215 0.0695453
27.255 0.047975
27.295 0.0401807
27.335 0.0398986
27.375 0.0367148
27.415 0.0242811
27.455 0.0124623
27.495 0.0428053
27.535 0.0171746
27.575 0.0440941
27.615 0.00389273
27.655 0.0499876
27.695 0.0612136
27.735 0.0104038
27.775 0.0470942
27.815 -0.0288611
27.855 0.0445156
27.895 0.0284875
27.935 0.0344963
27.975 0.0521975
28.015 0.0352064
28.055 0.00228699
28.095 0.0498499
28.135 0.0612462
28.175 0.042169
28.215 0.0373865
28.255 0.0395785
28.295 0.0371162
28.335 0.0374895
28.375 0.0131989
28.415 0.0454368
28.455 0.0492383
28.495 0.098811
28.535 0.0431327
28.575 0.0918035
28.615 0.139919
28.655 0.249902
28.695 0.26622
28.735 0.389269
28.775 0.363086
28.815 0.276229
28.855 0.231005
28.895 0.169545
28.935 0.107449
28.975 0.0807036
29.015 0.0222238
29.055 0.0458338
29.095 0.0445297
29.135 0.0347155
29.175 0.0376275
29.215 0.0855042
29.255 0.0320271
29.295 0.0789665
29.335 0.0412393
29.375 0.0316644
29.415 0.0869777
29.455 0.127861
29.495 0.104362
29.535 0.106444
29.575 0.106819
29.615 0.151295
29.655 0.139626
29.695 0.19934
29.735 0.22235
29.775 0.317106
29.815 0.422928
29.855 0.735553
29.895 1.07795
29.935 1.6485
29.975 2.27026
30.015 2.81362
30.055 2.79619
30.095 2.56112
30.135 1.89077
30.175 1.31966
30.215 0.858006
30.255 0.478357
30.295 0.29251
30.335 0.215019
30.375 0.111145
30.415 0.147182
30.455 0.0892264
30.495 0.0728958
30.535 0.0832546
30.575 0.0644872
30.615 0.0460282
30.655 0.0232185
30.695 0.0231841
30.735 0.053276
30.775 0.0327257
30.815 0.0374187
30.855 0.0411211
30.895 0.0158655
30.935 0.0322354
30.975 0.0320089
31.015 -0.00639421
31.055 0.0155551
31.095 -0.00153158
31.135 0.016253
31.175 0.0595653
31.215 -0.00254049
31.255 0.0575761
31.295 0.0421212
31.335 0.0478294
31.375 0.0553395
31.415 0.0253694
31.455 0.0334407
31.495 0.0203318
31.535 -0.00481417
31.575 0.017002
31.615 0.000161798
31.655 -0.00920137
31.695 -0.00651251
31.735 0.00426858
31.775 0.00424401
31.815 -0.00252476
31.855 0.0408201
31.895 0.00782603
31.935 0.012274
31.975 0.000721003
32.015 0.0250812
32.055 -0.00212063
32.095 0.00347259
32.135 0.022161
32.175 0.0205142
32.215 0.0109254
32.255 0.00615177
32.295 0.012265
32.335 -0.0178037
32.375 0.00374976
32.415 -0.0229576
32.455 0.0276198
32.495 -0.0279019
32.535 0.00729356
32.575 -0.00637722
32.615 0.00828287
32.655 -0.0100512
32.695 0.0136489
32.735 0.0196529
32.775 0.00215278
32.815 -0.0112878
32.855 -0.011436
32.895 0.0309792
32.935 0.00350079
32.975 0.000664873
33.015 -0.00692454
33.055 -0.00451484
33.095 -0.000852584
33.135 -0.015866
33.175 -0.00882563
33.215 0.00508157
33.255 -0.00372271
33.295 -0.00737061
33.335 -0.0153019
33.375 0.0178769
33.415 0.00977791
33.455 0.000556804
33.495 4.27828e-05
33.535 0.0182484
33.575 0.047643
33.615 0.0230556
33.655 0.0176034
33.695 0.00801075
33.735 -0.00110642
33.775 0.0162378
33.815 0.0242364
33.855 0.0221442
33.895 0.0305994
33.935 0.0016006
33.975 0.0050311
34.015 0.0244746
34.055 0.00969537
34.095 0.0450415
34.135 0.0373494
34.175 0.0426727
34.215 0.0434575
34.255 0.0356615
34.295 0.0358297
34.335 0.0692167
34.375 0.0758899
34.415 0.116485
34.455 0.12301
34.495 0.164838
34.535 0.214976
34.575 0.344086
34.615 0.539951
34.655 0.785458
34.695 1.00557
34.735 1.20768
34.775 1.26341
34.815 1.10444
34.855 0.860856
34.895 0.619646
34.935 0.396048
34.975 0.234482
35.015 0.172956
35.055 0.116669
35.095 0.0954403
35.135 0.086056
35.175 0.0804137
35.215 0.0584449
35.255 0.0447274
35.295 0.028575
35.335 0.00359102
35.375 0.0177631
35.415 0.0184414
35.455 0.0264893
35.495 0.0148107
35.535 0.0429305
35.575 -0.0033673
35.615 0.0369367
35.655 0.024317
35.695 0.0639347
35.735 0.0538028
35.775 0.0448007
35.815 0.0686366
35.855 0.112521
35.895 0.145081
35.935 0.22542
35.975 0.318103
36.015 0.426829
36.055 0.591531
36.095 0.790613
36.135 1.04408
36.175 1.26902
36.215 1.36727
36.255 1.33308
36.295 1.16322
36.335 0.87843
36.375 0.667169
36.415 0.416544
36.455 0.269406
36.495 0.178671
36.535 0.119592
36.575 0.0847752
36.615 0.0639473
36.655 0.0435454
36.695 0.0721643
36.735 0.0489067
36.775 0.052073
36.815 0.0512461
36.855 0.0677278
36.895 0.0645155
36.935 0.058148
36.975 0.0745855
37.015 0.0975198
37.055 0.0887671
37.095 0.105937
37.135 0.184133
37.175 0.215246
37.215 0.346756
37.255 0.513235
37.295 0.740338
37.335 0.986946
37.375 1.2019
37.415 1.24369
37.455 1.23516
37.495 1.08142
37.535 0.860317
37.575 0.6302
37.615 0.468005
37.655 0.321639
37.695 0.198466
37.735 0.151203
37.775 0.122516
37.815 0.0891573
37.855 0.0568133
37.895 0.0327734
37.935 0.0388878
37.975 0.0422047
38.015 0.0308064
38.055 0.0433476
38.095 0.0175375
38.135 0.0243262
38.175 0.0519079
38.215 0.0670944
38.255 0.053806
38.295 0.111669
38.335 0.14845
38.375 0.187073
38.415 0.212744
38.455 0.244322
38.495 0.259875
38.535 0.239461
38.575 0.211915
38.615 0.128614
38.655 0.0858041
38.695 0.0523832
38.735 0.0378336
38.775 0.0262446
38.815 0.0121946
38.855 0.00323748
38.895 0.0086036
38.935 0.0129239
38.975 0.00069332
39.015 -0.00198217
39.055 0.0202855
39.095 -0.00663721
39.135 0.00811232
39.175 -0.00656973
39.215 -0.00863935
39.255 -0.00599373
39.295 -0.0123562
39.335 -0.006163
39.375 0.000383157
39.415 -0.0160187
39.455 0.00274827
39.495 0.0153642
39.535 0.0125945
39.575 -0.00826768
39.615 0.0196601
39.655 0.0105914
39.695 0.000202151
39.735 -0.00350196
39.775 -0.0114227
39.815 0.00329307
39.855 -0.013669
39.895 0.00596055
39.935 -0.00424979
39.975 -0.00930537
40.015 0.000243003
40.055 -0.0172039
40.095 0.0092898
40.135 -0.0135185
40.175 0.0034053
40.215 0.00473401
40.255 0.00567952
40.295 -0.0077386
40.335 -0.00534896
40.375 -0.00332376
40.415 -0.0254869
40.455 0.00963239
40.495 0.013573
40.535 0.0208342
40.575 0.0441547
40.615 0.0601924
40.655 0.054338
40.695 0.0811283
40.735 0.0768116
40.775 0.0957176
40.815 0.0818259
40.855 0.103411
40.895 0.0606833
40.935 0.0596458
40.975 0.019808
41.015 0.0730469
41.055 0.0768698
41.095 0.0944246
41.135 0.152377
41.175 0.234196
41.215 0.230339
41.255 0.227645
41.295 0.262483
41.335 0.241853
41.375 0.1574
41.415 0.127787
41.455 0.0898672
41.495 0.0567154
41.535 0.0286555
41.575 0.0156464
41.615 0.015375
41.655 0.00557036
41.695 0.00569585
41.735 -0.0115338
41.775 0.0201497
41.815 0.00507658
41.855 0.00305621
41.895 -0.00544381
41.935 -0.0109656
41.975 -0.0105605
42.015 -0.00347517
42.055 0.0129277
42.095 -0.00800833
42.135 -0.00529043
42.175 -0.00393352
42.215 -0.0055365
42.255 0.0123462
42.295 0.00469178
42.335 0.015886
42.375 -0.0102038
42.415 0.020411
42.455 0.0180701
42.495 -0.00492387
42.535 -0.0102297
42.575 0.00464328
42.615 -0.0222918
42.655 0.000342384
42.695 -0.00500757
42.735 0.022257
42.775 -0.015538
42.815 0.00986909
42.855 0.0180741
42.895 0.0214986
42.935 -2.68032e-05
42.975 -0.00530673
43.015 0.00167367
43.055 0.0128417
43.095 0.00600192
43.135 0.0128337
43.175 0.00828009
43.215 -0.00308239
43.255 0.0108416
43.295 0.00972809
43.335 -0.0137763
43.375 -0.00353223
43.415 0.0174672
43.455 0.00267194
43.495 -0.0161181
43.535 0.0219619
43.575 0.0163896
43.615 0.00478672
43.655 0.0427992
43.695 0.0299628
43.735 0.0170695
43.775 -0.0170162
43.815 -0.011934
43.855 -0.00485176
43.895 0.0130865
43.935 0.0213098
43.975 0.0334537
44.015 0.00632508
44.055 -0.000177142
44.095 0.0254572
44.135 -0.011037
44.175 0.0529641
44.215 0.00990069
44.255 0.0559178
44.295 0.0446971
44.335 0.0598624
44.375 0.0750159
44.415 0.115619
44.455 0.173763
44.495 0.199775
44.535 0.237177
44.575 0.310974
44.615 0.300747
44.655 0.324103
44.695 0.330822
44.735 0.294631
44.775 0.231139
44.815 0.184346
44.855 0.151432
44.895 0.0888848
44.935 0.0663286
44.975 0.0213538
45.015 0.0315053
45.055 0.0156524
45.095 0.0178676
45.135 -0.00397001
45.175 -0.00574215
45.215 -0.0101445
45.255 0.0115486
45.295 0.0202933
45.335 -0.00275825
45.375 -0.0186041
45.415 -0.00949226
45.455 -0.00513076
45.495 0.0158109
45.535 0.00678289
45.575 0.0105726
45.615 0.00954762
45.655 -0.00534187
45.695 -0.0152041
45.735 -0.0105093
45.775 0.0103668
45.815 0.0314428
45.855 -0.00327069
45.895 0.0210707
45.935 0.00496303
45.975 0.00120092
46.015 0.0183198
46.055 0.0071816
46.095 0.029116
46.135 0.01135
46.175 0.00154105
46.215 0.0145706
46.255 0.044491
46.295 -0.00574745
46.335 0.0354005
46.375 0.0311759
46.415 0.025591
46.455 0.0283525
46.495 0.0208765
46.535 -0.00687147
46.575 0.0223452
46.615 0.0138188
46.655 0.0113231
46.695 0.0226538
46.735 0.0126965
46.775 0.0474303
46.815 0.0044523
46.855 0.016748
46.895 0.0390104
46.935 0.0295642
46.975 0.0436733
47.015 0.0367375
47.055 0.0232616
47.095 0.0564365
47.135 0.0498108
47.175 0.0565167
47.215 0.0841572
47.255 0.103092
47.295 0.122002
47.335 0.158781
47.375 0.196229
47.415 0.243969
47.455 0.293606
47.495 0.335021
47.535 0.354453
47.575 0.419597
47.615 0.437476
47.655 0.450482
47.695 0.483551
47.735 0.517519
47.775 0.618351
47.815 0.718429
47.855 0.859342
47.895 1.0579
47.935 1.23169
47.975 1.34702
48.015 1.38986
48.055 1.39786
48.095 1.32518
48.135 1.14148
48.175 0.97168
48.215 0.779689
48.255 0.573682
48.295 0.425409
48.335 0.30462
48.375 0.221987
48.415 0.151318
48.455 0.129156
48.495 0.120857
48.535 0.118593
48.575 0.104461
48.615 0.115863
48.655 0.126513
48.695 0.136406
48.735 0.160193
48.775 0.167358
48.815 0.203993
48.855 0.262039
48.895 0.301773
48.935 0.357332
48.975 0.386332
49.015 0.363938
49.055 0.349592
49.095 0.307097
49.135 0.280908
49.175 0.2431
49.215 0.158622
49.255 0.162598
49.295 0.113507
49.335 0.0818679
49.375 0.0556674
49.415 0.0581333
49.455 0.0613274
49.495 0.0487387
49.535 0.0394496
49.575 0.0492896
49.615 0.0607529
49.655 0.0600041
49.695 0.0745907
49.735 0.112629
49.775 0.118881
49.815 0.155529
49.855 0.189598
49.895 0.248578
49.935 0.302387
49.975 0.39614
50.015 0.473517
50.055 0.526534
50.095 0.554253
50.135 0.613204
50.175 0.637416
50.215 0.562924
50.255 0.50064
50.295 0.381669
50.335 0.317691
50.375 0.227957
50.415 0.170782
50.455 0.111817
50.495 0.081434
50.535 0.0788582
50.575 0.0273183
50.615 0.0280725
50.655 0.0192479
50.695 0.016493
50.735 0.0157632
50.775 0.0108055
50.815 -0.00832603
50.855 0.0152758
50.895 0.00550517
50.935 -0.0012045
50.975 0.00995442
51.015 0.00305295
51.055 0.0154366
51.095 -0.0137616
51.135 0.0181582
51.175 0.000862965
51.215 -0.00494859
51.255 0.00628891
51.295 0.0190629
51.335 -0.00432283
51.375 0.0215693
51.415 0.0331253
51.455 0.0207937
51.495 0.0591812
51.535 0.100371
51.575 0.161371
51.615 0.192209
51.655 0.236638
51.695 0.258025
51.735 0.23918
51.775 0.248998
51.815 0.255683
51.855 0.278426
51.895 0.281658
51.935 0.268633
51.975 0.243973
52.015 0.221516
52.055 0.172385
52.095 0.122234
52.135 0.0851763
52.175 0.0536735
52.215 0.0250855
52.255 0.0169663
52.295 0.0275805
52.335 0.00909915
52.375 -0.00765754
52.415 0.00407334
52.455 0.00877559
52.495 -0.00334696
52.535 0.0014567
52.575 -0.0103238
52.615 -0.0113912
52.655 0.00433764
52.695 0.00631356
52.735 -0.0105785
52.775 -0.00549939
52.815 -0.0151929
52.855 -0.00381839
52.895 -0.0106926
52.935 -0.00571539
52.975 -0.0229763
53.015 0.00965228
53.055 -0.0177563
53.095 0.0103611
53.135 0.00370004
53.175 0.00545869
53.215 -0.00168153
53.255 0.00852146
53.295 0.00538083
53.335 -0.00124475
53.375 0.0222212
53.415 0.0332303
53.455 0.0508864
53.495 0.0710571
53.535 0.100085
53.575 0.110718
53.615 0.113419
53.655 0.165371
53.695 0.166725
53.735 0.165423
53.775 0.191198
53.815 0.196077
53.855 0.190368
53.895 0.190576
53.935 0.172745
53.975 0.143991
54.015 0.0990963
54.055 0.0974922
54.095 0.0461608
54.135 0.0363835
54.175 0.0288245
54.215 0.0213762
54.255 0.00636767
54.295 0.0162772
54.335 -0.00695891
54.375 -0.00075228
54.415 0.017236
54.455 -0.020417
54.495 -0.0152102
54.535 -0.0194612
54.575 0.00401171
54.615 -0.00254122
54.655 -0.0176449
54.695 -0.00599802
54.735 -0.000866036
54.775 -0.0120715
54.815 0.0056646
54.855 0.00785417
54.895 0.0260945
54.935 0.0125244
54.975 0.0333857
55.015 0.033791
55.055 0.0226404
55.095 0.0421543
55.135 0.013002
55.175 0.00930133
55.215 0.0185766
55.255 0.00468807
55.295 0.00832322
55.335 -0.00591697
55.375 0.00370232
55.415 0.00353306
55.455 0.00105074
55.495 -0.0054575
55.535 -0.000235524
55.575 -0.013426
55.615 -0.0104176
55.655 -0.0197449
55.695 -0.00362502
55.735 0.00754477
55.775 0.00438085
55.815 -0.000908356
55.855 0.00306247
55.895 0.00810675
55.935 0.00157582
55.975 -0.00867893
56.015 -0.00990532
56.055 0.000634598
56.095 -0.00532959
56.135 0.00661707
56.175 0.00550218
56.215 -0.000950524
56.255 0.0181591
56.295 0.0138483
56.335 -0.00156242
56.375 0.00486314
56.415 -0.00528032
56.455 0.00794457
56.495 0.00806458
56.535 0.0020362
56.575 0.0143054
56.615 0.0345146
56.655 0.0140629
56.695 0.0322132
56.735 0.0439117
56.775 0.0424822
56.815 0.0421097
56.855 0.0651752
56.895 0.0609202
56.935 0.0609528
56.975 0.0544464
57.015 0.0706797
57.055 0.0749236
57.095 0.0682706
57.135 0.0547943
57.175 0.0604474
57.215 0.053706
57.255 0.0663799
57.295 0.035228
57.335 0.0640534
57.375 0.0945779
57.415 0.111866
57.455 0.125889
57.495 0.161818
57.535 0.196924
57.575 0.219231
57.615 0.247735
57.655 0.271224
57.695 0.284801
57.735 0.300854
57.775 0.312696
57.815 0.289169
57.855 0.275601
57.895 0.220248
57.935 0.176238
57.975 0.147249
58.015 0.110603
58.055 0.0720854
58.095 0.0393198
58.135 0.0386225
58.175 0.0248717
58.215 0.0208625
58.255 0.0158256
58.295 0.0203567
58.335 0.00406469
58.375 -0.00702058
58.415 -0.00355779
58.455 0.00202792
58.495 -0.00879315
58.535 0.0252327
58.575 -0.0199813
58.615 -0.00447822
58.655 -0.000703969
58.695 0.0103671
58.735 0.00294132
58.775 0.0018856
58.815 0.00103289
58.855 -0.000216327
58.895 0.00847435
58.935 0.00272656
58.975 -0.00127128
59.015 0.0183049
59.055 0.00314788
59.095 -0.00520155
59.135 0.00015073
59.175 -0.00570232
59.215 0.00854966
59.255 -0.00121887
59.295 0.0222514
59.335 -0.0172744
59.375 -0.0022234
59.415 -0.00256629
59.455 0.00161232
59.495 0.00444106
59.535 0.00702501
59.575 0.0160599
59.615 0.0140651
59.655 0.00842879
59.695 0.0158248
59.735 -0.00504754
59.775 -0.00236022
59.815 -0.020716
59.855 0.0144249
59.895 0.0202674
59.935 0.0110256
59.975 0.00160284
60.015 0.0143082
60.055 0.0050006
60.095 0.000686505
60.135 -0.0021162
60.175 0.0111087
60.215 0.0222567
60.255 0.0105967
60.295 0.00967724
60.335 -0.00610906
60.375 0.0307742
60.415 0.0311118
60.455 0.00147939
60.495 0.00744154
60.535 -0.00848346
60.575 0.0138977
60.615 0.0171198
60.655 -0.00909119
60.695 0.0116435
60.735 0.0250274
60.775 0.00194173
60.815 -0.016118
60.855 -0.00161549
60.895 -0.0041546
60.935 0.0145897
60.975 0.0201726
61.015 0.028155
61.055 0.0080543
61.095 0.0280033
61.135 0.0272021
61.175 0.0463027
61.215 0.0632985
61.255 0.0714581
61.295 0.0592839
61.335 0.0733104
61.375 0.0959804
61.415 0.0995392
61.455 0.129474
61.495 0.161607
61.535 0.170355
61.575 0.177535
61.615 0.183353
61.655 0.2063
61.695 0.200225
61.735 0.183682
61.775 0.174879
61.815 0.128616
61.855 0.116109
61.895 0.102788
61.935 0.11485
61.975 0.0995965
62.015 0.0725768
62.055 0.0944727
62.095 0.0884811
62.135 0.0918659
62.175 0.129715
62.215 0.149631
62.255 0.160409
62.295 0.183212
62.335 0.191741
62.375 0.228704
62.415 0.230898
62.455 0.25619
62.495 0.241626
62.535 0.210715
62.575 0.194725
62.615 0.189542
62.655 0.14755
62.695 0.130571
62.735 0.10841
62.775 0.0816856
62.815 0.0727665
62.855 0.0343162
62.895 0.0394572
62.935 0.0269084
62.975 0.0256743
63.015 0.0340544
63.055 0.027305
63.095 0.0339674
63.135 0.0118643
63.175 0.0184148
63.215 0.013576
63.255 0.00491972
63.295 0.0255778
63.335 0.00431515
63.375 -0.00244874
63.415 0.0132323
63.455 0.0141617
63.495 -0.00111375
63.535 0.0146086
63.575 -0.00372059
63.615 0.00744108
63.655 0.00244219
63.695 -0.000153412
63.735 0.000468689
63.775 0.00595362
63.815 -0.00819957
63.855 -0.00310982
63.895 -0.00653553
63.935 -0.00363419
63.975 -0.00832305
64.015 -0.00266359
64.055 -0.00496096
64.095 0.000234366
64.135 0.0101267
64.175 0.000394037
64.215 -0.00658273
64.255 0.00950855
64.295 0.00793833
64.335 0.0171547
64.375 0.0189686
64.415 0.0132242
64.455 0.00872199
64.495 0.0391557
64.535 0.0518866
64.575 0.0465698
64.615 0.0673551
64.655 0.0737938
64.695 0.0841734
64.735 0.100208
64.775 0.113631
64.815 0.11237
64.855 0.156001
64.895 0.162016
64.935 0.144797
64.975 0.152639
65.015 0.13072
65.055 0.125083
65.095 0.121778
65.135 0.0821554
65.175 0.0672743
65.215 0.0825092
65.255 0.0604508
65.295 0.0417046
65.335 0.0392325
65.375 0.0234286
65.415 0.0341563
65.455 0.0299767
65.495 0.0106565
65.535 0.0175889
65.575 0.00267544
65.615 0.016471
65.655 0.0170683
65.695 0.00540609
65.735 -0.0111476
65.775 0.00415934
65.815 -0.0143463
65.855 0.0136533
65.895 -0.00183711
65.935 0.00117876
65.975 -0.000333732
66.015 0.0269265
66.055 0.00307285
66.095 -0.00621512
66.135 0.00882466
66.175 0.00210913
66.215 0.00414208
66.255 -0.00118311
66.295 -0.000205715
66.335 0.0136281
66.375 -0.000681553
66.415 0.0168923
66.455 -0.0138255
66.495 -0.000921959
66.535 -0.0019613
66.575 0.0173053
66.615 -0.0057314
66.655 0.0113001
66.695 0.00323512
66.735 -0.0178197
66.775 0.0107805
66.815 0.0119582
66.855 -0.000462719
66.895 0.00724321
66.935 -0.0124059
66.975 -0.0114158
67.015 0.0193334
67.055 -0.00300702
67.095 0.00947604
67.135 0.00637915
67.175 0.00991806
67.215 -0.0078244
67.255 0.0263193
67.295 -0.000773297
67.335 -0.000217897
67.375 0.0237144
67.415 0.0242869
67.455 0.0335617
67.495 0.0250146
67.535 0.0429589
67.575 0.0357797
67.615 0.028233
67.655 0.0472531
67.695 0.034423
67.735 0.0511406
67.775 0.0437516
67.815 0.0735392
67.855 0.0478559
67.895 0.037624
67.935 0.0564364
67.975 0.0199324
68.015 0.0161861
68.055 0.0130731
68.095 0.0195886
68.135 0.0181883
68.175 0.016506
68.215 0.0201751
68.255 0.0225879
68.295 0.0298127
68.335 -0.00588581
68.375 0.0188084
68.415 0.00931844
68.455 0.0198513
68.495 0.0106314
68.535 0.0258445
68.575 0.0122682
68.615 -0.0141116
68.655 0.00689636
68.695 -0.00814477
68.735 0.00317484
68.775 0.00841398
68.815 0.00298287
68.855 0.00848289
68.895 0.0112129
68.935 -0.0175534
68.975 0.000189335
69.015 0.0123306
69.055 -0.0025755
69.095 0.00289884
69.135 -0.0119827
69.175 -0.0075198
69.215 -0.00890017
69.255 0.0128509
69.295 -0.00928466
69.335 0.0112335
69.375 0.00185421
69.415 -0.000659984
69.455 -0.00924293
69.495 -0.00011947
69.535 -0.019632
69.575 -0.00543815
69.615 -0.00349203
69.655 0.00611629
69.695 -0.0171285
69.735 0.00264437
69.76 -0.0209923