File: data/xrd/xy/2019-05-29T19_56_50.129046+00_00_LBL_G1.xy
'Id: "" Comment: "Integrate frame 4Fluorophenyl_03_002.gfrmwith cursor Wedge Cursor #3" Operator: "UC Berkeley" Anode: "Co" Scantype: "TwoTheta" TimePerStep: "600"
14.415 -0.0268868
14.45 -0.00884494
14.485 0.0501776
14.52 0.0856574
14.555 0.105569
14.59 0.113911
14.625 0.0940463
14.66 0.14252
14.695 0.0937158
14.73 0.0459422
14.765 0.01523
14.8 0.0121419
14.835 -0.0065102
14.87 0.0216759
14.905 -0.0218074
14.94 0.00158692
14.975 0.0106547
15.01 0.0368237
15.045 0.0128953
15.08 -0.00348397
15.115 0.0192764
15.15 0.0018348
15.185 0.0346174
15.22 0.0300724
15.255 0.0579651
15.29 0.0230063
15.325 0.033735
15.36 0.0840785
15.395 0.0377515
15.43 0.106908
15.465 0.0775942
15.5 0.0688777
15.535 0.0737097
15.57 0.0841263
15.605 0.0852925
15.64 0.0215918
15.675 0.0129241
15.71 0.0398048
15.745 0.0367644
15.78 -0.0074595
15.815 0.033108
15.85 0.0169354
15.885 0.014256
15.92 0.0333706
15.955 -0.00163784
15.99 0.00208883
16.025 0.0181633
16.06 0.0432756
16.095 0.0220192
16.13 0.0544131
16.165 0.0486032
16.2 0.0384738
16.235 0.050932
16.27 0.0287334
16.305 0.0488095
16.34 0.0136632
16.375 0.0334497
16.41 0.0496276
16.445 0.0531358
16.48 0.0146565
16.515 0.0207086
16.55 0.0389319
16.585 0.0107105
16.62 0.0569818
16.655 0.0368251
16.69 0.0721761
16.725 0.0710437
16.76 0.0630035
16.795 0.0622493
16.83 0.0480327
16.865 0.026621
16.9 0.0335697
16.935 0.0221635
16.97 0.0540857
17.005 0.0563503
17.04 0.106718
17.075 0.179812
17.11 0.288227
17.145 0.313518
17.18 0.342121
17.215 0.324992
17.25 0.18904
17.285 0.0990271
17.32 0.0586203
17.355 0.0259642
17.39 0.0182156
17.425 0.00327039
17.46 0.0206694
17.495 0.0193301
17.53 -0.00613467
17.565 0.0306818
17.6 0.0117021
17.635 0.00761984
17.67 -0.00172153
17.705 0.036203
17.74 0.00213735
17.775 0.0124404
17.81 0.0261439
17.845 0.0145554
17.88 0.00470698
17.915 0.0253649
17.95 0.0270265
17.985 0.0125133
18.02 -0.00266998
18.055 0.0118104
18.09 0.0355608
18.125 0.0442868
18.16 0.0127206
18.195 0.0430051
18.23 0.0641421
18.265 0.0545813
18.3 0.0811625
18.335 0.146108
18.37 0.17885
18.405 0.2933
18.44 0.456855
18.475 0.692206
18.51 0.955808
18.545 1.20913
18.58 1.29399
18.615 1.15677
18.65 0.731334
18.685 0.44121
18.72 0.212804
18.755 0.104845
18.79 0.0234809
18.825 0.0366857
18.86 0.0319165
18.895 0.0364758
18.93 0.0398582
18.965 0.00753858
19 0.0426056
19.035 -0.00830322
19.07 0.0270566
19.105 0.0198401
19.14 0.00978229
19.175 0.0444908
19.21 0.0308775
19.245 0.0190633
19.28 0.0439542
19.315 0.0152806
19.35 0.0306227
19.385 0.0151367
19.42 -0.0256066
19.455 0.0183397
19.49 0.0116629
19.525 0.0620494
19.56 0.000127365
19.595 0.0336141
19.63 -0.00144454
19.665 -0.00355801
19.7 0.0362546
19.735 0.0148171
19.77 0.0467719
19.805 0.0494147
19.84 -0.000315118
19.875 0.00230291
19.91 0.0362452
19.945 0.00203526
19.98 0.0386768
20.015 0.00862222
20.05 -0.00714988
20.085 0.038708
20.12 0.017593
20.155 0.0140278
20.19 -0.00572974
20.225 0.0121529
20.26 0.0270351
20.295 0.0141509
20.33 0.0133548
20.365 0.0216634
20.4 -0.0175919
20.435 0.0315112
20.47 -0.017146
20.505 0.00104315
20.54 0.0242908
20.575 0.00488604
20.61 0.0172139
20.645 0.00481946
20.68 0.0059394
20.715 0.0206976
20.75 0.00664707
20.785 0.0220387
20.82 0.029488
20.855 0.0275666
20.89 0.0195372
20.925 0.0116673
20.96 0.0169315
20.995 -0.0210668
21.03 0.00327213
21.065 0.0290696
21.1 0.00581681
21.135 0.0264929
21.17 0.0162771
21.205 0.0434153
21.24 -0.00912565
21.275 -0.00820615
21.31 0.0670969
21.345 0.0303064
21.38 -0.00191187
21.415 0.0150233
21.45 0.0603194
21.485 0.024885
21.52 -0.00858086
21.555 0.0141537
21.59 -0.007042
21.625 0.0294393
21.66 0.000566137
21.695 0.00586376
21.73 0.0477201
21.765 0.0215699
21.8 0.0434566
21.835 0.0317966
21.87 -0.0173123
21.905 0.0428721
21.94 0.026862
21.975 0.0375396
22.01 0.0232133
22.045 0.0338541
22.08 -0.0118676
22.115 0.015505
22.15 -0.0124194
22.185 0.020565
22.22 -0.0179343
22.255 -0.0100392
22.29 0.00491713
22.325 0.00311778
22.36 -0.0183697
22.395 0.010002
22.43 -0.00686616
22.465 0.0366701
22.5 0.00371177
22.535 -0.00124961
22.57 -0.00125333
22.605 0.00478995
22.64 0.0200508
22.675 0.0225259
22.71 0.0123744
22.745 -0.0026262
22.78 0.00259814
22.815 0.00834404
22.85 -0.00861477
22.885 0.0199154
22.92 0.016433
22.955 0.0148223
22.99 0.00774425
23.025 0.0140296
23.06 0.0249052
23.095 -0.00702611
23.13 0.00915353
23.165 -0.00268119
23.2 0.0120897
23.235 0.0178046
23.27 0.0141495
23.305 -0.0190053
23.34 0.0218429
23.375 -0.00742075
23.41 0.00603363
23.445 0.0376934
23.48 -0.0117788
23.515 0.0277488
23.55 0.00926238
23.585 0.02001
23.62 0.0187503
23.655 -0.0267172
23.69 0.0364751
23.725 0.0396463
23.76 -0.00520432
23.795 0.0237395
23.83 0.0207772
23.865 0.0200436
23.9 0.00155682
23.935 0.0377167
23.97 0.00567199
24.005 0.0202962
24.04 -0.006913
24.075 0.0219832
24.11 -0.00987401
24.145 0.0101296
24.18 0.018985
24.215 -0.0097589
24.25 0.00624253
24.285 0.0313737
24.32 0.00113637
24.355 0.0436237
24.39 -1.97631e-05
24.425 0.00554963
24.46 0.0150801
24.495 0.0146298
24.53 0.0626077
24.565 0.0509334
24.6 0.037709
24.635 0.0980083
24.67 0.120449
24.705 0.169635
24.74 0.254691
24.775 0.51146
24.81 0.970781
24.845 1.73787
24.88 2.67861
24.915 3.70815
24.95 4.32512
24.985 4.47372
25.02 3.5387
25.055 2.37929
25.09 1.23518
25.125 0.592194
25.16 0.241008
25.195 0.137827
25.23 0.0819466
25.265 0.0561086
25.3 0.0367021
25.335 0.00914065
25.37 0.0465153
25.405 0.032229
25.44 0.0197321
25.475 -0.000166735
25.51 0.0433739
25.545 0.014265
25.58 0.0407015
25.615 0.0209717
25.65 0.00883185
25.685 0.0195432
25.72 0.000490652
25.755 0.0069309
25.79 -0.0197235
25.825 0.00701687
25.86 -0.0219907
25.895 0.0141672
25.93 -0.0110101
25.965 -0.018504
26 -0.00699912
26.035 0.00510455
26.07 0.00251436
26.105 0.0104801
26.14 0.0238206
26.175 0.0239617
26.21 0.0310989
26.245 -0.000427024
26.28 -0.00349968
26.315 0.0204068
26.35 0.01378
26.385 0.0151873
26.42 0.019011
26.455 0.0554016
26.49 0.0305146
26.525 0.0198935
26.56 0.0526416
26.595 0.0646616
26.63 0.0765056
26.665 0.0568063
26.7 0.0345295
26.735 0.0108674
26.77 0.0160632
26.805 0.00706191
26.84 0.0157943
26.875 -0.0102721
26.91 0.00951637
26.945 0.00989098
26.98 0.0221253
27.015 0.0561174
27.05 0.0896239
27.085 0.0791034
27.12 0.116947
27.155 0.100567
27.19 0.141278
27.225 0.135904
27.26 0.123726
27.295 0.0721134
27.33 0.0267265
27.365 0.0158629
27.4 0.0282358
27.435 0.00772552
27.47 -0.00100429
27.505 0.0142769
27.54 -0.00228395
27.575 -0.00920518
27.61 0.00567863
27.645 -0.000201139
27.68 0.00715976
27.715 0.0135408
27.75 0.0351935
27.785 0.00956808
27.82 0.00644099
27.855 0.0253714
27.89 0.0398958
27.925 0.0672768
27.96 0.0367165
27.995 0.0356837
28.03 0.0086769
28.065 -0.00916428
28.1 0.00278725
28.135 0.0109751
28.17 0.00792733
28.205 0.0120197
28.24 0.00447685
28.275 -0.00379115
28.31 0.0245481
28.345 0.0109974
28.38 -0.000297727
28.415 0.0284075
28.45 0.012839
28.485 0.00326221
28.52 0.0268836
28.555 0.0712567
28.59 0.03433
28.625 -0.00273141
28.66 0.0167197
28.695 0.00508727
28.73 0.0239619
28.765 0.027238
28.8 0.0215739
28.835 -0.0264549
28.87 -0.00152255
28.905 0.00921454
28.94 0.0102411
28.975 0.0133123
29.01 0.0276512
29.045 0.00414575
29.08 0.00595443
29.115 0.00902681
29.15 -0.00363314
29.185 0.00476874
29.22 -0.0224242
29.255 -0.0191797
29.29 0.00231217
29.325 -0.00526458
29.36 0.00267669
29.395 0.0135298
29.43 -0.0169622
29.465 0.00896822
29.5 -0.0134562
29.535 0.0196181
29.57 0.0388032
29.605 0.0624402
29.64 0.0576295
29.675 0.0803336
29.71 0.046977
29.745 0.0269583
29.78 0.0153893
29.815 -0.0234892
29.85 0.0358652
29.885 0.02627
29.92 0.0398343
29.955 0.0396843
29.99 0.097222
30.025 0.148588
30.06 0.28357
30.095 0.362404
30.13 0.468782
30.165 0.527546
30.2 0.531
30.235 0.388428
30.27 0.259215
30.305 0.125985
30.34 0.0768455
30.375 0.0528084
30.41 0.0440877
30.445 -0.00460268
30.48 0.0536836
30.515 0.0248479
30.55 0.0310121
30.585 0.0285334
30.62 0.0219137
30.655 0.0384913
30.69 0.0162098
30.725 0.0239299
30.76 0.0212858
30.795 0.0664059
30.83 0.0371224
30.865 0.0553179
30.9 0.0828888
30.935 0.107181
30.97 0.120763
31.005 0.118716
31.04 0.166801
31.075 0.238812
31.11 0.404295
31.145 0.604292
31.18 0.997623
31.215 1.92742
31.25 3.9635
31.285 7.26981
31.32 11.0701
31.355 14.2996
31.39 14.574
31.425 12.4781
31.46 8.61945
31.495 5.2901
31.53 2.65043
31.565 1.23681
31.6 0.599203
31.635 0.376956
31.67 0.363896
31.705 0.345604
31.74 0.372905
31.775 0.34015
31.81 0.345517
31.845 0.272881
31.88 0.199645
31.915 0.126231
31.95 0.0784656
31.985 0.0464805
32.02 0.0672341
32.055 0.0222829
32.09 0.0431083
32.125 0.0244353
32.16 0.00974874
32.195 0.00261057
32.23 0.0118654
32.265 0.00524523
32.3 -0.0135524
32.335 -0.00432424
32.37 0.0177017
32.405 0.000751434
32.44 0.00472372
32.475 0.00765599
32.51 -0.0188158
32.545 -0.00386232
32.58 0.0149452
32.615 -0.00997425
32.65 -0.00383121
32.685 -0.00960007
32.72 -0.00739191
32.755 -0.0153933
32.79 -0.00573189
32.825 -0.00503057
32.86 -0.0045344
32.895 -0.016293
32.93 -0.01448
32.965 0.000468551
33 0.00923473
33.035 -2.44439e-05
33.07 -0.00200101
33.105 0.00132475
33.14 -0.0117271
33.175 -0.00747397
33.21 -0.0227636
33.245 -0.0177877
33.28 -0.0155182
33.315 -0.0159035
33.35 0.0127432
33.385 -0.0026486
33.42 -0.00865471
33.455 -0.00361881
33.49 -0.00671193
33.525 0.00429453
33.56 0.00964776
33.595 -3.16517e-05
33.63 0.011897
33.665 0.00780649
33.7 0.0199864
33.735 0.0492521
33.77 0.120719
33.805 0.196927
33.84 0.271625
33.875 0.391506
33.91 0.485004
33.945 0.549727
33.98 0.49697
34.015 0.381223
34.05 0.291468
34.085 0.289888
34.12 0.300833
34.155 0.287162
34.19 0.189869
34.225 0.13422
34.26 0.0810828
34.295 0.065442
34.33 0.0630253
34.365 0.106389
34.4 0.139772
34.435 0.202138
34.47 0.275622
34.505 0.362453
34.54 0.400216
34.575 0.328369
34.61 0.269351
34.645 0.184049
34.68 0.15863
34.715 0.086171
34.75 0.0765442
34.785 0.0748982
34.82 0.0423202
34.855 0.0258843
34.89 0.0491331
34.925 0.0406348
34.96 0.0588132
34.995 0.0458385
35.03 0.0308642
35.065 0.00483912
35.1 -0.00316272
35.135 0.0198368
35.17 0.0129049
35.205 0.0299487
35.24 0.0129021
35.275 0.0217974
35.31 0.0105391
35.345 -0.00652624
35.38 0.00054895
35.415 -0.0170422
35.45 -0.0109618
35.485 -0.00115083
35.52 -0.0256963
35.555 -0.0137768
35.59 -0.00963268
35.625 -0.00281699
35.66 -0.0217703
35.695 -0.00155005
35.73 -0.00276436
35.765 -0.00258517
35.8 0.00888767
35.835 -0.0187462
35.87 -0.0157147
35.905 0.00988168
35.94 -0.0160545
35.975 -0.00306921
36.01 -0.00654191
36.045 -0.0136992
36.08 -0.0122081
36.115 0.000119685
36.15 0.0139196
36.185 0.00443226
36.22 0.0156901
36.255 -0.0153526
36.29 0.0137717
36.325 0.0219597
36.36 0.016609
36.395 0.00422132
36.43 -0.0120536
36.465 -0.00843257
36.5 -0.00173311
36.535 -0.00189155
36.57 -0.00793383
36.605 -0.00368404
36.64 -0.0225587
36.675 0.00513634
36.71 -0.00876327
36.745 -0.0229948
36.78 -0.016523
36.815 -0.0165301
36.85 -0.0144907
36.885 -0.0174352
36.92 -0.00710613
36.955 -0.00461008
36.99 -0.0090297
37.025 -0.0213486
37.06 -0.00249059
37.095 -0.00348354
37.13 0.00255753
37.165 -0.00203346
37.2 0.00662053
37.235 0.0258198
37.27 0.0263818
37.305 0.0605339
37.34 0.0799638
37.375 0.100549
37.41 0.13692
37.445 0.152834
37.48 0.184386
37.515 0.172556
37.55 0.189812
37.585 0.19169
37.62 0.229154
37.655 0.270284
37.69 0.450775
37.725 0.719703
37.76 1.54391
37.795 3.25309
37.83 7.13956
37.865 11.6135
37.9 15.6431
37.935 15.224
37.97 12.2071
38.005 7.89346
38.04 4.30584
38.075 2.07069
38.11 0.978369
38.145 0.515994
38.18 0.32339
38.215 0.249821
38.25 0.202826
38.285 0.161905
38.32 0.137464
38.355 0.112363
38.39 0.0962999
38.425 0.0613006
38.46 0.0836332
38.495 0.0744237
38.53 0.10467
38.565 0.0971147
38.6 0.109199
38.635 0.0847929
38.67 0.0319093
38.705 0.0213558
38.74 -0.0017827
38.775 0.0158598
38.81 -0.00902213
38.845 -0.000611541
38.88 -0.0118461
38.915 -0.00627793
38.95 -0.0160638
38.985 -0.0076186
39.02 -0.00758708
39.055 -0.00428308
39.09 -0.0120279
39.125 0.00538332
39.16 -0.0111106
39.195 -0.00589328
39.23 0.00385414
39.265 -0.0181778
39.3 -0.0177825
39.335 -0.0114782
39.37 -0.0239756
39.405 -0.00453588
39.44 -0.00352026
39.475 0.0024256
39.51 -0.00249632
39.545 0.00374048
39.58 0.0268308
39.615 0.0631404
39.65 0.107271
39.685 0.128577
39.72 0.10798
39.755 0.0959532
39.79 0.0767366
39.825 0.0960842
39.86 0.141566
39.895 0.202554
39.93 0.261258
39.965 0.269256
40 0.268158
40.035 0.247502
40.07 0.218753
40.105 0.154535
40.14 0.12702
40.175 0.0883351
40.21 0.0450511
40.245 0.026316
40.28 0.0228863
40.315 0.00644573
40.35 0.00412426
40.385 -0.00829118
40.42 -0.00329377
40.455 -0.00767072
40.49 -0.0186447
40.525 0.00537729
40.56 -0.000789985
40.595 0.0254807
40.63 0.0613834
40.665 0.142146
40.7 0.242669
40.735 0.330506
40.77 0.324722
40.805 0.283152
40.84 0.207112
40.875 0.126149
40.91 0.0756855
40.945 0.0569678
40.98 0.0445331
41.015 0.0257084
41.05 0.00188643
41.085 0.00171973
41.12 0.00806837
41.155 -0.00114358
41.19 -0.019582
41.225 0.0201256
41.26 -0.0161466
41.295 -0.0207256
41.33 0.000144108
41.365 -0.01832
41.4 -0.0047788
41.435 0.0239423
41.47 0.00183907
41.505 -0.0105795
41.54 0.00740203
41.575 -0.0176356
41.61 -0.0122973
41.645 0.0143653
41.68 -0.0111269
41.715 0.0100964
41.75 0.016181
41.785 0.023868
41.82 -0.00470814
41.855 0.0229236
41.89 0.0202724
41.925 -0.00290653
41.96 -0.00164728
41.995 -0.011459
42.03 -0.00199244
42.065 0.0112764
42.1 -0.00450872
42.135 0.00285383
42.17 0.0109022
42.205 -0.00927906
42.24 -0.00371118
42.275 0.000723548
42.31 -0.0114098
42.345 0.00104513
42.38 0.00168901
42.415 -0.0137175
42.45 0.0079844
42.485 -0.00649359
42.52 -0.00149657
42.555 0.0106432
42.59 0.0055401
42.625 0.00918607
42.66 0.0154389
42.695 0.0140157
42.73 0.00727826
42.765 -0.00661493
42.8 -0.00987099
42.835 0.0201116
42.87 -0.0101078
42.905 0.0137908
42.94 -0.0215711
42.975 -0.000260112
43.01 -0.017721
43.045 -0.0153721
43.08 -0.0054209
43.115 -0.00145558
43.15 -0.00945692
43.185 -0.0091417
43.22 0.00702729
43.255 0.0330808
43.29 0.0457851
43.325 0.0616893
43.36 0.0631496
43.395 0.0578645
43.43 0.0413361
43.465 0.0284535
43.5 -0.00481076
43.535 0.00259232
43.57 0.0162105
43.605 0.0256353
43.64 0.036259
43.675 0.0093392
43.71 0.0164157
43.745 0.024162
43.78 0.0106507
43.815 0.0037499
43.85 -0.021334
43.885 -0.00386816
43.92 -0.000736836
43.955 0.0211144
43.99 0.0186331
44.025 -0.00640762
44.06 0.000432325
44.095 -0.0139916
44.13 0.0276971
44.165 -0.00301845
44.2 0.0174549
44.235 0.0291206
44.27 0.0119112
44.305 0.0167579
44.34 0.0154006
44.375 0.0155624
44.41 0.029017
44.445 0.0327638
44.48 0.0365062
44.515 0.0559123
44.55 0.101761
44.585 0.12771
44.62 0.135559
44.655 0.113489
44.69 0.109234
44.725 0.0809207
44.76 0.0810209
44.795 0.0613469
44.83 0.0408614
44.865 0.0712035
44.9 0.0555597
44.935 0.0589729
44.97 0.0791267
45.005 0.0692915
45.04 0.134205
45.075 0.19976
45.11 0.306521
45.145 0.4192
45.18 0.515825
45.215 0.548547
45.25 0.486435
45.285 0.419813
45.32 0.301109
45.355 0.213696
45.39 0.122936
45.425 0.0572725
45.46 0.0377464
45.495 0.0148542
45.53 0.000901657
45.565 0.00616551
45.6 0.00600767
45.635 0.00140163
45.67 -0.0119727
45.705 -0.0212082
45.74 -0.00766428
45.775 0.0168433
45.81 0.0181119
45.845 -0.00404338
45.88 0.0103064
45.915 0.0162097
45.95 0.0183597
45.985 0.0388372
46.02 0.0817043
46.055 0.127754
46.09 0.137475
46.125 0.212642
46.16 0.30373
46.195 0.399993
46.23 0.433503
46.265 0.49264
46.3 0.448222
46.335 0.394868
46.37 0.31015
46.405 0.223463
46.44 0.136071
46.475 0.063318
46.51 0.054883
46.545 0.0283818
46.58 0.0278974
46.615 5.85283e-05
46.65 0.00536988
46.685 -0.0110539
46.72 0.00866581
46.755 0.0128465
46.79 -0.000931379
46.825 -0.0150536
46.86 0.00971472
46.895 -0.00904729
46.93 0.00883889
46.965 -0.00642248
47 -0.00826383
47.035 0.00683788
47.07 -0.00451007
47.105 -0.0114155
47.14 0.0172758
47.175 -0.0133696
47.21 0.0107444
47.245 0.00900498
47.28 0.0179972
47.315 0.0263865
47.35 0.0210752
47.385 0.0204805
47.42 0.0247123
47.455 0.00986888
47.49 0.0252278
47.525 0.0110678
47.56 0.00402424
47.595 -0.0153134
47.63 -0.0104729
47.665 -0.00332027
47.7 -0.00513556
47.735 0.000334848
47.77 -0.00091056
47.805 0.000744688
47.84 0.00386043
47.875 -0.00567724
47.91 -0.00314662
47.945 -0.00749648
47.98 -0.0112563
48.015 0.00445015
48.05 0.0161809
48.085 -0.0114696
48.12 0.00926234
48.155 -0.00438903
48.19 0.0064997
48.225 -0.00164338
48.26 -0.00451951
48.295 0.00260265
48.33 -0.00527464
48.365 -0.00625812
48.4 -0.00929318
48.435 -0.0183482
48.47 -0.00923673
48.505 -0.00677321
48.54 0.0118185
48.575 0.00844421
48.61 0.0143961
48.645 0.035588
48.68 0.0590403
48.715 0.0790754
48.75 0.121133
48.785 0.129685
48.82 0.153563
48.855 0.140553
48.89 0.117529
48.925 0.089749
48.96 0.0745505
48.995 0.0487639
49.03 0.0463764
49.065 0.0265777
49.1 0.0306265
49.135 0.0360821
49.17 0.0459404
49.205 0.061079
49.24 0.0698196
49.275 0.0558193
49.31 0.0278247
49.345 0.0280809
49.38 0.0262506
49.415 0.0240457
49.45 0.0239323
49.485 0.0561217
49.52 0.0721745
49.555 0.0639882
49.59 0.0711872
49.625 0.0690643
49.66 0.0711426
49.695 0.0872081
49.73 0.0835547
49.765 0.0629079
49.8 0.0531676
49.835 0.0224916
49.87 0.00127287
49.905 0.00358176
49.94 0.000979709
49.975 -0.00783736
50.01 -0.00335104
50.045 -0.000818213
50.08 -0.00359464
50.115 -0.00113958
50.15 -0.0092779
50.185 -0.0120097
50.22 -0.0108917
50.255 -0.0010824
50.29 0.00421561
50.325 -0.00766003
50.36 -0.0105028
50.395 -0.008594
50.43 -0.0131693
50.465 -0.00441581
50.5 0.00519973
50.535 -0.00670586
50.57 0.00236768
50.605 -0.00269891
50.64 0.00716036
50.675 -0.0049405
50.71 0.00153122
50.745 0.000419094
50.78 -0.016145
50.815 -0.00963953
50.85 -0.0105918
50.885 -0.0151315
50.92 -0.0145067
50.955 -0.00908893
50.99 -0.00195544
51.025 -0.00661723
51.06 -0.019246
51.095 0.000464694
51.13 -0.00272307
51.165 -0.00942425
51.2 -0.00484131
51.235 0.0118464
51.27 0.0167121
51.305 0.0179112
51.34 0.0185519
51.375 0.0297751
51.41 0.0432952
51.445 0.0619244
51.48 0.0809224
51.515 0.0824867
51.55 0.0662583
51.585 0.0639769
51.62 0.0746166
51.655 0.0578359
51.69 0.0531379
51.725 0.0334401
51.76 0.0200246
51.795 0.0144647
51.83 0.00071505
51.865 -0.000292323
51.9 -0.00321941
51.935 -0.00217734
51.97 0.00406824
52.005 -0.000855135
52.04 -0.00557511
52.075 0.00248226
52.11 -0.00230017
52.145 -0.00200336
52.18 -0.00695964
52.215 -0.00228584
52.25 -0.0106585
52.285 -0.00213588
52.32 0.00525222
52.355 0.0165354
52.39 0.0366966
52.425 0.0588176
52.46 0.0543441
52.495 0.0583094
52.53 0.0512354
52.565 0.0421592
52.6 0.0037152
52.635 0.00919066
52.67 -0.00302136
52.705 -0.00323673
52.74 0.00216296
52.775 0.00553798
52.81 0.0167974
52.845 0.0330655
52.88 0.0594157
52.915 0.0652934
52.95 0.0806987
52.985 0.0809239
53.02 0.0774591
53.055 0.0725768
53.09 0.0570641
53.125 0.0468716
53.16 0.0488462
53.195 0.0147233
53.23 0.0113171
53.265 0.00971124
53.3 0.00184552
53.335 -0.00444475
53.37 -0.0185546
53.405 -0.0151319
53.44 -0.0160795
53.475 -0.002792
53.51 -0.00641673
53.545 -0.00336582
53.58 -0.00977399
53.615 0.0165699
53.65 0.00453449
53.685 0.00200869
53.72 0.0302411
53.755 0.0340993
53.79 0.048684
53.825 0.0461223
53.86 0.0441666
53.895 0.046356
53.93 0.0426503
53.965 0.0384628
54 0.0476695
54.035 0.0337058
54.07 0.00882741
54.105 -0.00180572
54.14 -0.0192728
54.175 -0.00288579
54.21 -0.010666
54.245 -0.00859184
54.28 -0.0142967
54.315 0.00159594
54.35 0.0236048
54.385 0.0296154
54.42 0.0335884
54.455 0.049983
54.49 0.0365109
54.525 0.0405296
54.56 0.0505446
54.595 0.0498013
54.63 0.0629356
54.665 0.0490416
54.7 0.0340337
54.735 0.0308349
54.77 0.0226062
54.805 -0.000894559
54.84 0.0107285
54.875 0.0171641
54.91 0.0290017
54.945 0.0577205
54.98 0.103774
55.015 0.152187
55.05 0.197343
55.085 0.178291
55.12 0.14444
55.155 0.124152
55.19 0.0998956
55.225 0.0932482
55.26 0.0629355
55.295 0.0604554
55.33 0.0348599
55.365 0.0327742
55.4 0.0170556
55.435 0.000880275
55.47 -0.00271553
55.505 0.00712519
55.54 0.00994905
55.575 0.00522762
55.61 0.00425082
55.645 -0.0186429
55.68 -0.00231658
55.715 0.00622786
55.75 0.0186566
55.785 0.015898
55.82 0.0162956
55.855 0.0307882
55.89 0.0356572
55.925 0.0429047
55.96 0.0465036
55.995 0.0261864
56.03 0.0381563
56.065 0.0342683
56.1 0.0711021
56.135 0.0626936
56.17 0.0699136
56.205 0.0628128
56.24 0.0582273
56.275 0.0504002
56.31 0.0584005
56.345 0.0482124
56.38 0.0407746
56.415 0.0427097
56.45 0.0258213
56.485 0.0118098
56.52 0.00527418
56.555 0.0013508
56.59 -0.00432438
56.625 -0.00184845
56.66 0.00292144
56.695 -0.0106358
56.73 -0.00780075
56.765 -0.0112148
56.8 -0.00763593
56.835 0.00419387
56.87 0.0105514
56.905 0.0126414
56.94 0.00346577
56.975 0.0122291
57.01 0.014199
57.045 0.018618
57.08 0.0239367
57.115 -0.000520898
57.15 -0.0120784
57.185 0.000317494
57.22 -0.0110328
57.255 0.00622439
57.29 0.000961583
57.325 0.00261567
57.36 -0.00308413
57.395 4.84451e-05
57.43 0.015977
57.465 0.0106942
57.5 0.0151238
57.535 0.00278605
57.57 0.00955949
57.605 0.013074
57.64 0.0184263
57.675 0.0124982
57.71 0.0265577
57.745 0.0116477
57.78 -0.0151033
57.815 0.0018285
57.85 -0.00483333
57.885 0.00143919
57.92 4.75814e-05
57.955 0.00045567
57.99 0.00814128
58.025 0.00427989
58.06 0.0119136
58.095 0.00522491
58.13 0.0048832
58.165 -0.0145373
58.2 -0.0146932
58.235 -0.00590815
58.27 -0.0077508
58.305 0.00384799
58.34 0.0231197
58.375 0.01855
58.41 0.0178307
58.445 0.0100763
58.48 0.00603636
58.515 0.00479839
58.55 0.0225949
58.585 0.0090497
58.62 0.00244225
58.655 0.0102012
58.69 0.01033
58.725 0.00149669
58.76 -0.00282523
58.795 0.0117335
58.83 0.0139306
58.865 0.0529712
58.9 0.0412757
58.935 0.0535352
58.97 0.0696518
59.005 0.0536839
59.04 0.0696343
59.075 0.0626507
59.11 0.0430791
59.145 0.0605793
59.18 0.0433981
59.215 0.0354846
59.25 0.0330199
59.285 0.0264663
59.32 0.0403022
59.355 0.0157371
59.39 0.00280434
59.425 0.0126185
59.46 0.00546131
59.495 -0.00585706
59.53 0.00505819
59.565 -0.0145285
59.6 0.00531362
59.635 0.0123037
59.67 -0.00517342
59.705 0.00116039
59.74 -0.0164404
59.775 -0.00507586
59.81 0.00994578
59.845 -0.000508462
59.88 0.00685591
59.915 0.004475
59.95 0.00965682
59.985 0.0200939
60.02 0.00369805
60.055 0.015733
60.09 0.0123805
60.125 0.0129382
60.16 -0.0108834
60.195 0.00833832
60.23 0.0181223
60.265 0.00826119
60.3 0.00624413
60.335 0.00746795
60.37 0.00341847
60.405 0.0117268
60.44 0.0103531
60.475 0.0093054
60.51 0.0108471
60.545 0.00691663
60.58 0.00547988
60.615 0.000941388
60.65 0.0284179
60.685 0.011003
60.72 0.00480476
60.755 0.00725613
60.79 -0.00532525
60.825 0.000450151
60.86 -0.0125857
60.895 -0.0113804
60.93 -0.000244523
60.965 0.00434935
61 -0.0013448
61.035 0.0238808
61.07 0.0302983
61.105 0.0386348
61.14 0.0404509
61.175 0.0537735
61.21 0.0557262
61.245 0.045868
61.28 0.0462203
61.315 0.0188875
61.35 0.0198882
61.385 0.0248533
61.42 0.0312047
61.455 0.0648816
61.49 0.0773948
61.525 0.110457
61.56 0.125575
61.595 0.140508
61.63 0.142375
61.665 0.142087
61.7 0.14187
61.735 0.115802
61.77 0.117585
61.805 0.0840611
61.84 0.0779695
61.875 0.0526208
61.91 0.0372608
61.945 0.026682
61.98 0.0168071
62.015 0.00431068
62.05 -0.001521
62.085 -0.00152924
62.12 -0.0139044
62.155 -0.0158037
62.19 -0.0110052
62.225 -0.013384
62.26 -0.00400823
62.295 -0.0109229
62.33 -0.00963894
62.365 -0.0178332
62.4 -0.00025405
62.435 0.00294216
62.47 0.0113511
62.505 0.0160041
62.54 0.0239726
62.575 0.0250319
62.61 0.0373149
62.645 0.0319202
62.68 0.0539676
62.715 0.0491452
62.75 0.0296238
62.785 0.0200699
62.82 0.0350511
62.855 0.0445989
62.89 0.0189737
62.925 0.0260268
62.96 0.01081
62.995 0.026804
63.03 0.00969508
63.065 0.0464146
63.1 0.0767612
63.135 0.101185
63.17 0.120732
63.205 0.140185
63.24 0.152644
63.275 0.143872
63.31 0.162726
63.345 0.130631
63.38 0.100217
63.415 0.0875836
63.45 0.0597025
63.485 0.0519952
63.52 0.0320217
63.555 0.0406481
63.59 0.0395575
63.625 0.0168663
63.66 0.00780818
63.695 0.0104197
63.73 0.00298193
63.765 0.00774161
63.8 0.0029627
63.835 0.0169098
63.87 -0.016839
63.905 0.00956426
63.94 -0.00794086
63.975 0.00735495
64.01 -0.00226136
64.045 0.00530332
64.08 0.000704743
64.115 0.0136595
64.15 -0.00595065
64.185 0.008804
64.22 -0.00123433
64.255 0.00396184
64.29 -0.00465265
64.325 -0.00428172
64.36 -0.00216033
64.395 0.00184298
64.43 0.00766669
64.465 0.00782428
64.5 0.000112513
64.535 0.00502373
64.57 0.00775101
64.605 0.00544894
64.64 0.00173624
64.675 0.010765
64.71 0.0218307
64.745 0.00599678
64.78 0.020593
64.815 0.0121317
64.85 -0.00120614
64.885 -0.0026395
64.92 0.00351151
64.955 0.00732197
64.99 0.00239752
65.025 -0.0156208
65.06 -0.00937532
65.095 -0.0163313
65.13 0.00956019
65.165 -0.0126206
65.2 0.00208012
65.235 -0.00952965
65.27 0.00426892
65.305 -0.0114879
65.34 -0.00872651
65.375 0.00385862
65.41 0.00317478
65.445 0.0120333
65.48 0.0111516
65.515 0.0347797
65.55 0.0265144
65.585 0.0200355
65.62 0.00294489
65.655 0.00744621
65.69 0.00430362
65.725 0.0208808
65.76 0.00956926
65.795 0.00433718
65.83 -0.00719893
65.865 -0.00927967
65.9 -0.00890663
65.915 -0.0181453