File: data/xrd/xy/2019-05-23TO2_12_25.720560+00_00_LBL_E1.xy
'Id: "" Comment: "Integrate frame 06062019_neo_Pentyl_03_002.gfrmwith cursor Wedge Cursor #3" Operator: "UC Berkeley" Anode: "Co" Scantype: "TwoTheta" TimePerStep: "600"
14.32 -0.0255923
14.355 -0.0109024
14.39 0.014741
14.425 0.00184741
14.46 0.0185964
14.495 0.0116323
14.53 0.00667172
14.565 0.0396407
14.6 0.0210528
14.635 0.0221092
14.67 -0.0246017
14.705 0.0180652
14.74 0.0326755
14.775 0.0393633
14.81 0.0255193
14.845 0.0545655
14.88 0.0207457
14.915 0.0490954
14.95 0.0195562
14.985 0.0299587
15.02 0.0374867
15.055 0.0262501
15.09 -0.00482121
15.125 0.00213584
15.16 0.0417168
15.195 0.0272446
15.23 0.013623
15.265 0.00892784
15.3 0.0413021
15.335 0.0142829
15.37 0.0256225
15.405 0.0238432
15.44 0.0118311
15.475 0.0396914
15.51 0.00292926
15.545 0.0145851
15.58 0.00912329
15.615 0.0245199
15.65 0.0112041
15.685 0.0160397
15.72 -0.0227206
15.755 0.0175711
15.79 0.0499239
15.825 0.0537836
15.86 0.00143308
15.895 0.0329646
15.93 0.0131405
15.965 0.0241103
16 0.0393193
16.035 0.0138346
16.07 0.0554662
16.105 0.0415447
16.14 0.0121945
16.175 0.00212411
16.21 0.0485953
16.245 0.00718384
16.28 -0.00176832
16.315 -0.0172346
16.35 0.0254482
16.385 0.0584247
16.42 0.0141157
16.455 0.0300658
16.49 0.0138766
16.525 0.0365022
16.56 0.051046
16.595 -0.0134349
16.63 0.00941463
16.665 0.0522044
16.7 -0.000762437
16.735 0.0589945
16.77 0.0234283
16.805 0.0497635
16.84 0.0131541
16.875 0.0210038
16.91 0.0408045
16.945 0.0182151
16.98 0.0350071
17.015 0.0281455
17.05 -0.0166811
17.085 0.0224683
17.12 0.0334732
17.155 0.0345813
17.19 0.0057697
17.225 0.0189801
17.26 0.00573769
17.295 0.0182522
17.33 0.00979071
17.365 0.0149938
17.4 0.0210666
17.435 0.035427
17.47 0.0377883
17.505 0.0106635
17.54 0.0191568
17.575 0.024032
17.61 0.0338937
17.645 0.0154049
17.68 0.0464528
17.715 0.00676749
17.75 0.0125505
17.785 -0.00740482
17.82 0.0489473
17.855 0.0186056
17.89 0.0444211
17.925 0.071068
17.96 0.00797643
17.995 0.0419585
18.03 -0.0060563
18.065 0.0195875
18.1 0.0497811
18.135 0.0300106
18.17 0.0678757
18.205 0.0304153
18.24 0.0348579
18.275 0.0223818
18.31 0.0221227
18.345 0.00144147
18.38 0.0316288
18.415 0.0316654
18.45 0.0623318
18.485 0.010219
18.52 0.0351964
18.555 0.015199
18.59 0.0193226
18.625 -0.00986984
18.66 0.00298082
18.695 0.0336675
18.73 0.0187348
18.765 0.0217445
18.8 -0.014981
18.835 -0.0134064
18.87 0.020018
18.905 0.0214496
18.94 0.0431227
18.975 0.0338093
19.01 0.0440067
19.045 0.0139091
19.08 0.0362435
19.115 0.00493284
19.15 0.0286432
19.185 0.0201207
19.22 0.0213109
19.255 0.0412066
19.29 0.0146953
19.325 0.0445372
19.36 0.0362812
19.395 0.034892
19.43 0.0139966
19.465 0.0225852
19.5 0.0512018
19.535 0.0332998
19.57 0.00583871
19.605 0.0206429
19.64 0.00587076
19.675 0.00889119
19.71 0.0240705
19.745 0.0421535
19.78 0.0124757
19.815 -0.0015022
19.85 0.0214627
19.885 0.0117951
19.92 0.0147685
19.955 -0.0137264
19.99 -4.70811e-05
20.025 0.0334682
20.06 0.0581459
20.095 0.00089665
20.13 0.0460329
20.165 0.00988449
20.2 0.0163364
20.235 0.0309381
20.27 0.010994
20.305 0.0119915
20.34 0.0182781
20.375 0.023003
20.41 -0.00591311
20.445 0.00848518
20.48 0.0325843
20.515 -0.013374
20.55 0.00579187
20.585 -0.0146093
20.62 0.0400932
20.655 -0.0107701
20.69 0.026195
20.725 0.0460829
20.76 0.0217373
20.795 0.010832
20.83 0.0306748
20.865 0.0170105
20.9 -0.00320164
20.935 -0.00137423
20.97 0.0239993
21.005 0.0128558
21.04 -0.0112366
21.075 0.0121303
21.11 0.0188119
21.145 0.0161482
21.18 0.00871927
21.215 -0.000271976
21.25 0.0195275
21.285 0.0357269
21.32 0.0218949
21.355 0.0176915
21.39 -0.00441794
21.425 0.0156064
21.46 -0.00487497
21.495 0.0334158
21.53 0.0180546
21.565 0.0211047
21.6 0.000395262
21.635 0.00171946
21.67 0.00567123
21.705 0.00881553
21.74 0.0472999
21.775 0.00721394
21.81 -0.0239779
21.845 0.0193403
21.88 -0.00947659
21.915 0.0248053
21.95 -0.00440022
21.985 0.0114877
22.02 0.0533925
22.055 0.00632214
22.09 0.0199369
22.125 0.0316007
22.16 0.0216496
22.195 0.0269155
22.23 0.0416699
22.265 0.0724009
22.3 0.0761416
22.335 0.0757941
22.37 0.14307
22.405 0.186813
22.44 0.229363
22.475 0.190438
22.51 0.207809
22.545 0.207987
22.58 0.218617
22.615 0.173883
22.65 0.126897
22.685 0.130746
22.72 0.0662141
22.755 0.0866445
22.79 0.126784
22.825 0.132679
22.86 0.128385
22.895 0.112473
22.93 0.128417
22.965 0.108736
23 0.122341
23.035 0.0830498
23.07 0.0419627
23.105 0.0119855
23.14 0.0332141
23.175 0.0214776
23.21 0.0251398
23.245 0.0289094
23.28 0.0149813
23.315 0.0350473
23.35 0.0353038
23.385 0.031399
23.42 0.0398457
23.455 0.0560334
23.49 0.046671
23.525 0.061337
23.56 0.0999401
23.595 0.0968902
23.63 0.113431
23.665 0.0952149
23.7 0.155727
23.735 0.0940252
23.77 0.0916248
23.805 0.0608125
23.84 0.0467072
23.875 0.0410803
23.91 0.0270458
23.945 0.0337745
23.98 0.0173997
24.015 0.00929383
24.05 0.00540511
24.085 -0.00124377
24.12 -0.00105101
24.155 0.0026616
24.19 0.0228099
24.225 0.0162907
24.26 0.0224111
24.295 0.0205446
24.33 -0.0136358
24.365 0.00984759
24.4 0.0339118
24.435 -0.023566
24.47 0.0268639
24.505 -0.000398588
24.54 0.0369077
24.575 0.03298
24.61 0.0200908
24.645 0.0224994
24.68 0.0217115
24.715 0.0182829
24.75 0.00433073
24.785 0.0264206
24.82 0.014664
24.855 0.0440632
24.89 0.0183002
24.925 0.0698277
24.96 0.0236029
24.995 0.0283104
25.03 0.0537183
25.065 0.0439134
25.1 0.0403704
25.135 0.0422735
25.17 0.0346505
25.205 0.0370164
25.24 0.0326067
25.275 0.0180179
25.31 0.038565
25.345 0.0152614
25.38 0.0328796
25.415 0.00252163
25.45 0.0165755
25.485 0.0130342
25.52 -0.00257632
25.555 0.0512834
25.59 0.0227019
25.625 0.0253326
25.66 0.0343991
25.695 0.0455357
25.73 0.0377941
25.765 0.0763716
25.8 0.0546184
25.835 0.0473436
25.87 0.0516902
25.905 0.0557472
25.94 0.0442573
25.975 0.0519956
26.01 0.0278768
26.045 0.0433045
26.08 0.070321
26.115 0.0302509
26.15 0.0266898
26.185 0.0244285
26.22 -0.000603272
26.255 0.018475
26.29 0.0151498
26.325 0.0369784
26.36 0.0481041
26.395 0.0547963
26.43 0.0381292
26.465 0.0181221
26.5 0.033274
26.535 0.0690377
26.57 0.0439757
26.605 0.0612128
26.64 0.0425575
26.675 0.0432125
26.71 0.0373429
26.745 0.0474343
26.78 0.0408542
26.815 0.0409773
26.85 0.0315406
26.885 0.0321587
26.92 0.0180298
26.955 0.0299686
26.99 0.0297134
27.025 0.0280346
27.06 0.0369612
27.095 0.0324942
27.13 0.0389484
27.165 0.0465667
27.2 0.0665747
27.235 0.0554385
27.27 0.106818
27.305 0.10353
27.34 0.154892
27.375 0.16372
27.41 0.236015
27.445 0.304882
27.48 0.42488
27.515 0.470449
27.55 0.490678
27.585 0.44247
27.62 0.400877
27.655 0.309458
27.69 0.245422
27.725 0.138461
27.76 0.124368
27.795 0.0637276
27.83 0.0557235
27.865 0.0523308
27.9 0.0823751
27.935 0.077174
27.97 0.0443482
28.005 0.0234752
28.04 0.0242552
28.075 0.0128908
28.11 0.0252562
28.145 0.0345928
28.18 0.058302
28.215 0.0531294
28.25 0.0377071
28.285 0.0463961
28.32 0.0411573
28.355 0.0440602
28.39 0.0157714
28.425 0.0412664
28.46 0.0286047
28.495 0.0115206
28.53 0.0235285
28.565 0.00147072
28.6 0.0301335
28.635 0.0194273
28.67 0.0187492
28.705 0.00397789
28.74 0.0115441
28.775 0.0331634
28.81 0.00481491
28.845 0.0183853
28.88 -0.0127498
28.915 0.00797306
28.95 -0.00552613
28.985 0.0116318
29.02 0.0224834
29.055 0.0109958
29.09 0.000549938
29.125 0.0129822
29.16 0.0503976
29.195 0.00916634
29.23 0.0439291
29.265 0.00190139
29.3 0.0411931
29.335 0.00854419
29.37 0.0220142
29.405 0.0308745
29.44 0.0174966
29.475 0.00324335
29.51 0.0239504
29.545 -0.0229038
29.58 0.00914787
29.615 0.0382747
29.65 0.0247742
29.685 0.0015689
29.72 -0.00214769
29.755 -0.011778
29.79 0.0275197
29.825 0.0095281
29.86 -0.000567849
29.895 0.0176426
29.93 0.0140648
29.965 0.0266102
30 0.0143616
30.035 0.0518398
30.07 0.00868205
30.105 0.05846
30.14 0.0324423
30.175 0.01816
30.21 0.0265291
30.245 0.0396366
30.28 0.030732
30.315 0.0641996
30.35 0.0265975
30.385 0.0336556
30.42 0.0297524
30.455 0.0254322
30.49 0.0160451
30.525 0.0384273
30.56 0.0202633
30.595 0.0285835
30.63 0.00230664
30.665 0.0100605
30.7 -0.00123382
30.735 0.0225172
30.77 0.0171837
30.805 0.0385427
30.84 0.0253474
30.875 0.0626236
30.91 0.0889952
30.945 0.0492074
30.98 0.110569
31.015 0.141074
31.05 0.208502
31.085 0.267026
31.12 0.327417
31.155 0.34037
31.19 0.349545
31.225 0.301521
31.26 0.231228
31.295 0.208389
31.33 0.150003
31.365 0.120343
31.4 0.1236
31.435 0.109817
31.47 0.116118
31.505 0.127018
31.54 0.143023
31.575 0.174375
31.61 0.224159
31.645 0.243264
31.68 0.300434
31.715 0.342151
31.75 0.390981
31.785 0.471613
31.82 0.490542
31.855 0.470742
31.89 0.450667
31.925 0.345439
31.96 0.283473
31.995 0.214187
32.03 0.178776
32.065 0.186706
32.1 0.22458
32.135 0.253771
32.17 0.292936
32.205 0.311689
32.24 0.330739
32.275 0.347364
32.31 0.339808
32.345 0.314303
32.38 0.326744
32.415 0.395097
32.45 0.446223
32.485 0.502656
32.52 0.557691
32.555 0.539684
32.59 0.489745
32.625 0.446682
32.66 0.359893
32.695 0.284707
32.73 0.279066
32.765 0.303198
32.8 0.349396
32.835 0.437167
32.87 0.527639
32.905 0.504586
32.94 0.433429
32.975 0.348523
33.01 0.248552
33.045 0.145616
33.08 0.0937141
33.115 0.0845209
33.15 0.0725491
33.185 0.0776255
33.22 0.113944
33.255 0.13349
33.29 0.148003
33.325 0.180663
33.36 0.245776
33.395 0.278938
33.43 0.292763
33.465 0.314848
33.5 0.317297
33.535 0.259957
33.57 0.202113
33.605 0.171888
33.64 0.134117
33.675 0.115144
33.71 0.108802
33.745 0.129383
33.78 0.165704
33.815 0.197884
33.85 0.216772
33.885 0.235616
33.92 0.210521
33.955 0.138318
33.99 0.107987
34.025 0.0516348
34.06 0.0380236
34.095 -0.00666999
34.13 -0.0107531
34.165 -0.00540287
34.2 0.0256847
34.235 0.0121455
34.27 0.0165809
34.305 0.0213161
34.34 0.0552313
34.375 0.057816
34.41 0.0941155
34.445 0.139403
34.48 0.197712
34.515 0.252989
34.55 0.309232
34.585 0.354253
34.62 0.339956
34.655 0.291002
34.69 0.235359
34.725 0.175413
34.76 0.0969866
34.795 0.0682333
34.83 0.0221174
34.865 0.01031
34.9 -0.0101895
34.935 -0.00466526
34.97 -0.0130762
35.005 -0.0147224
35.04 -0.0181022
35.075 -0.00997046
35.11 -0.0205887
35.145 -0.0163202
35.18 -0.00401144
35.215 -0.000966582
35.25 -0.000709903
35.285 -0.00729576
35.32 0.020743
35.355 0.0422618
35.39 0.0653663
35.425 0.120293
35.46 0.203967
35.495 0.302028
35.53 0.401057
35.565 0.467164
35.6 0.495616
35.635 0.44871
35.67 0.36241
35.705 0.271959
35.74 0.20677
35.775 0.126647
35.81 0.0766176
35.845 0.0698695
35.88 0.0639724
35.915 0.0653436
35.95 0.0838858
35.985 0.0874602
36.02 0.0806604
36.055 0.110045
36.09 0.0946483
36.125 0.0808201
36.16 0.0635839
36.195 0.0565423
36.23 0.0487823
36.265 0.0553233
36.3 0.0600622
36.335 0.0816943
36.37 0.0988277
36.405 0.114521
36.44 0.147839
36.475 0.170395
36.51 0.213259
36.545 0.296297
36.58 0.417261
36.615 0.615776
36.65 0.81174
36.685 1.02036
36.72 1.09578
36.755 1.12573
36.79 0.978086
36.825 0.811635
36.86 0.616835
36.895 0.456061
36.93 0.312649
36.965 0.21061
37 0.156187
37.035 0.102616
37.07 0.0746789
37.105 0.0798446
37.14 0.0352899
37.175 0.0299128
37.21 0.0232912
37.245 0.0119377
37.28 0.00149223
37.315 -0.00743387
37.35 0.0226733
37.385 0.00212068
37.42 0.0144004
37.455 0.00468911
37.49 -0.00282428
37.525 0.0155561
37.56 0.00210262
37.595 0.0142473
37.63 -0.00339596
37.665 0.0113071
37.7 0.0410767
37.735 0.0442738
37.77 0.0669858
37.805 0.0923809
37.84 0.0893545
37.875 0.129474
37.91 0.122325
37.945 0.180954
37.98 0.228316
38.015 0.261195
38.05 0.274418
38.085 0.272831
38.12 0.28676
38.155 0.32344
38.19 0.324604
38.225 0.354413
38.26 0.339807
38.295 0.32975
38.33 0.286329
38.365 0.231302
38.4 0.20016
38.435 0.159118
38.47 0.115993
38.505 0.104714
38.54 0.0808969
38.575 0.072142
38.61 0.0426585
38.645 0.0210343
38.68 0.0344539
38.715 0.0172793
38.75 0.0453158
38.785 0.048124
38.82 0.079906
38.855 0.0895959
38.89 0.0951492
38.925 0.122459
38.96 0.117924
38.995 0.114141
39.03 0.15504
39.065 0.192871
39.1 0.203562
39.135 0.206856
39.17 0.213166
39.205 0.203256
39.24 0.23589
39.275 0.244351
39.31 0.223509
39.345 0.20096
39.38 0.180246
39.415 0.161679
39.45 0.154657
39.485 0.14975
39.52 0.131571
39.555 0.161695
39.59 0.163635
39.625 0.143372
39.66 0.127128
39.695 0.133247
39.73 0.125276
39.765 0.0983059
39.8 0.106786
39.835 0.118134
39.87 0.116823
39.905 0.15655
39.94 0.162416
39.975 0.186947
40.01 0.192041
40.045 0.175428
40.08 0.170712
40.115 0.141061
40.15 0.111464
40.185 0.0891813
40.22 0.0498608
40.255 0.0350664
40.29 0.00187955
40.325 -0.0157066
40.36 -0.00636094
40.395 -0.00598543
40.43 -0.00512913
40.465 -0.00590411
40.5 -0.0113173
40.535 -0.00295076
40.57 0.00167353
40.605 -0.000780789
40.64 0.0107821
40.675 -0.00200033
40.71 0.0116442
40.745 0.00523495
40.78 0.0323701
40.815 0.0276707
40.85 0.0506287
40.885 0.0554643
40.92 0.0702019
40.955 0.0568795
40.99 0.0604381
41.025 0.0556857
41.06 0.0266804
41.095 0.0240547
41.13 0.0126326
41.165 -0.0177702
41.2 -0.0148658
41.235 0.0144373
41.27 -0.00136493
41.305 0.0183797
41.34 0.00800042
41.375 0.0230516
41.41 0.0363516
41.445 0.0284451
41.48 0.0258659
41.515 0.0503002
41.55 0.0496941
41.585 0.0279873
41.62 0.0329163
41.655 0.0178499
41.69 0.0326827
41.725 0.0196778
41.76 0.00946202
41.795 0.0275347
41.83 0.012665
41.865 0.00458757
41.9 0.0037614
41.935 0.00825767
41.97 0.0142127
42.005 -0.00180096
42.04 0.00786612
42.075 0.00836966
42.11 0.0156291
42.145 0.00875078
42.18 -0.000743677
42.215 0.00961169
42.25 0.0310514
42.285 0.024904
42.32 0.0145928
42.355 0.00808832
42.39 0.00723079
42.425 0.00952901
42.46 0.00445317
42.495 -0.00281651
42.53 -0.00983649
42.565 -0.00496723
42.6 -0.0106206
42.635 0.00783819
42.67 -0.010718
42.705 0.0163002
42.74 -0.00362167
42.775 -0.00675325
42.81 0.00853005
42.845 -0.00776008
42.88 0.0129396
42.915 -0.00743167
42.95 -0.000100867
42.985 -0.0047324
43.02 -0.011098
43.055 -0.0079384
43.09 -0.000243051
43.125 0.00806059
43.16 0.00215163
43.195 -0.00486864
43.23 -0.0100749
43.265 0.00858883
43.3 0.0136576
43.335 0.00111479
43.37 0.00261749
43.405 0.0210395
43.44 -0.00278064
43.475 0.0101678
43.51 0.00601883
43.545 0.00901425
43.58 0.022214
43.615 0.0186262
43.65 0.0320978
43.685 0.0196181
43.72 0.0319275
43.755 0.00841589
43.79 0.0220139
43.825 -0.0116722
43.86 -0.00335198
43.895 0.010786
43.93 0.0192696
43.965 0.0220525
44 0.0118207
44.035 0.0156112
44.07 0.000207625
44.105 0.0225572
44.14 0.012614
44.175 0.0237144
44.21 0.0172638
44.245 0.00861203
44.28 0.0152917
44.315 0.0196572
44.35 0.00698944
44.385 0.00456153
44.42 0.0033192
44.455 0.0479313
44.49 0.0307056
44.525 0.0215054
44.56 0.0505409
44.595 0.0805108
44.63 0.0845584
44.665 0.108033
44.7 0.138002
44.735 0.15129
44.77 0.13346
44.805 0.141153
44.84 0.114472
44.875 0.170126
44.91 0.176427
44.945 0.228682
44.98 0.269892
45.015 0.309034
45.05 0.348946
45.085 0.369698
45.12 0.358265
45.155 0.29344
45.19 0.260535
45.225 0.225174
45.26 0.191464
45.295 0.166693
45.33 0.180874
45.365 0.177328
45.4 0.243364
45.435 0.230523
45.47 0.282211
45.505 0.280316
45.54 0.301506
45.575 0.266108
45.61 0.276299
45.645 0.204072
45.68 0.177762
45.715 0.161215
45.75 0.11804
45.785 0.135687
45.82 0.147606
45.855 0.150578
45.89 0.181671
45.925 0.176471
45.96 0.163565
45.995 0.169506
46.03 0.164524
46.065 0.143104
46.1 0.137582
46.135 0.129264
46.17 0.109064
46.205 0.128366
46.24 0.142275
46.275 0.180064
46.31 0.214632
46.345 0.24361
46.38 0.283558
46.415 0.347805
46.45 0.329348
46.485 0.302792
46.52 0.29805
46.555 0.258222
46.59 0.22007
46.625 0.182152
46.66 0.215066
46.695 0.197477
46.73 0.203407
46.765 0.196636
46.8 0.200026
46.835 0.179107
46.87 0.118342
46.905 0.0750265
46.94 0.0442141
46.975 0.0356005
47.01 0.0314299
47.045 0.00765994
47.08 0.00264089
47.115 -0.0119615
47.15 -0.00915908
47.185 -0.01089
47.22 -0.00993196
47.255 -0.00460762
47.29 -0.00254962
47.325 -0.00451934
47.36 0.0176518
47.395 0.0285212
47.43 0.0418898
47.465 0.0413847
47.5 0.0504689
47.535 0.0329288
47.57 0.0430222
47.605 0.0246106
47.64 0.0251811
47.675 0.0162115
47.71 0.0182075
47.745 -0.00355396
47.78 0.00545716
47.815 0.00704087
47.85 -0.0090939
47.885 0.00304315
47.92 -0.0153033
47.955 -0.00347638
47.99 0.00831856
48.025 0.00651115
48.06 0.00658269
48.095 0.0103877
48.13 0.0171934
48.165 0.0401956
48.2 0.0490073
48.235 0.0573015
48.27 0.0601973
48.305 0.101583
48.34 0.10981
48.375 0.1279
48.41 0.151726
48.445 0.156686
48.48 0.175151
48.515 0.161288
48.55 0.146298
48.585 0.123218
48.62 0.107949
48.655 0.0752969
48.69 0.0489068
48.725 0.0479577
48.76 0.0379045
48.795 0.0132347
48.83 0.0111506
48.865 0.0181291
48.9 0.0129728
48.935 0.0310042
48.97 0.0205024
49.005 0.0148696
49.04 0.00769914
49.075 0.0186645
49.11 0.0136765
49.145 0.0017202
49.18 0.00201077
49.215 -0.00255832
49.25 -0.00549042
49.285 0.00660757
49.32 -0.017306
49.355 0.0103585
49.39 0.00795645
49.425 0.00328417
49.46 0.00203732
49.495 0.00250821
49.53 0.0128695
49.565 0.0158228
49.6 0.0298649
49.635 0.0401808
49.67 0.0353611
49.705 0.0465494
49.74 0.042658
49.775 0.0371052
49.81 0.062215
49.845 0.0658097
49.88 0.0806792
49.915 0.0774573
49.95 0.0612573
49.985 0.0669202
50.02 0.0577506
50.055 0.0444748
50.09 0.0473642
50.125 0.0606393
50.16 0.0652816
50.195 0.0701465
50.23 0.0952773
50.265 0.110175
50.3 0.134478
50.335 0.159658
50.37 0.191913
50.405 0.241543
50.44 0.269606
50.475 0.291531
50.51 0.319748
50.545 0.326608
50.58 0.318784
50.615 0.297482
50.65 0.275455
50.685 0.233743
50.72 0.224087
50.755 0.217224
50.79 0.200471
50.825 0.187366
50.86 0.175597
50.895 0.178688
50.93 0.178494
50.965 0.158074
51 0.156607
51.035 0.147852
51.07 0.1424
51.105 0.160294
51.14 0.149528
51.175 0.163
51.21 0.173894
51.245 0.171982
51.28 0.181038
51.315 0.153512
51.35 0.14048
51.385 0.117516
51.42 0.090458
51.455 0.0890148
51.49 0.0753268
51.525 0.0741303
51.56 0.0680553
51.595 0.0733743
51.63 0.0632136
51.665 0.0653097
51.7 0.0494371
51.735 0.056262
51.77 0.0476333
51.805 0.0493534
51.84 0.0501323
51.875 0.0585174
51.91 0.0658393
51.945 0.0592383
51.98 0.0791498
52.015 0.104656
52.05 0.105892
52.085 0.118961
52.12 0.13112
52.155 0.125068
52.19 0.127785
52.225 0.126036
52.26 0.104697
52.295 0.0972882
52.33 0.0874389
52.365 0.076295
52.4 0.0767243
52.435 0.0723051
52.47 0.0791529
52.505 0.106064
52.54 0.129288
52.575 0.103816
52.61 0.13703
52.645 0.126604
52.68 0.150608
52.715 0.160756
52.75 0.176084
52.785 0.15785
52.82 0.164289
52.855 0.156039
52.89 0.139087
52.925 0.117573
52.96 0.0966616
52.995 0.0739716
53.03 0.050119
53.065 0.0365795
53.1 0.0366896
53.135 0.0247367
53.17 0.0343754
53.205 0.0371307
53.24 0.0431364
53.275 0.0324793
53.31 0.0288219
53.345 0.0228015
53.38 0.0351237
53.415 0.0284214
53.45 0.0370607
53.485 0.0385235
53.52 0.0349468
53.555 0.0343586
53.59 0.0434233
53.625 0.0362023
53.66 0.0429725
53.695 0.0476264
53.73 0.0302858
53.765 0.0447767
53.8 0.0547595
53.835 0.0524263
53.87 0.0547755
53.905 0.0759454
53.94 0.0774236
53.975 0.0820427
54.01 0.0701922
54.045 0.0743525
54.08 0.0787994
54.115 0.07413
54.15 0.075863
54.185 0.0612922
54.22 0.0428551
54.255 0.0342647
54.29 0.0338291
54.325 0.0295918
54.36 0.0148055
54.395 0.0160158
54.43 0.00216017
54.465 0.00553679
54.5 0.0147872
54.535 -0.00233684
54.57 -0.00259777
54.605 0.0203755
54.64 0.00255376
54.675 -0.00103923
54.71 -0.0083977
54.745 0.00115207
54.78 -0.00652253
54.815 -0.00802278
54.85 -0.00700503
54.885 -0.0103348
54.92 -0.00502056
54.955 -0.00290766
54.99 -0.00539862
55.025 -0.00421678
55.06 0.0126209
55.095 -0.0157117
55.13 0.00413481
55.165 0.00353015
55.2 -0.012829
55.235 0.00202689
55.27 -0.0160417
55.305 -0.00245553
55.34 -0.00106688
55.375 0.00298781
55.41 0.000738118
55.445 -0.000939952
55.48 0.00702987
55.515 -0.00152189
55.55 -0.00228002
55.585 -0.000137735
55.62 -0.00840248
55.655 -0.00591843
55.69 -0.00258568
55.725 -0.00988248
55.76 -0.00495539
55.795 0.0192022
55.83 -0.00306069
55.865 0.000502693
55.9 -0.00173375
55.935 0.00370548
55.97 0.0100536
56.005 0.00834854
56.04 0.0123597
56.075 0.015107
56.11 0.00576965
56.145 0.00693045
56.18 0.0129931
56.215 0.0334487
56.25 0.0240248
56.285 0.0288319
56.32 0.037009
56.355 0.0588207
56.39 0.0658669
56.425 0.0743626
56.46 0.0995838
56.495 0.120511
56.53 0.12719
56.565 0.150446
56.6 0.151778
56.635 0.152032
56.67 0.14276
56.705 0.122813
56.74 0.133081
56.775 0.125718
56.81 0.120487
56.845 0.135361
56.88 0.127314
56.915 0.125818
56.95 0.123728
56.985 0.116063
57.02 0.107016
57.055 0.0959542
57.09 0.0746091
57.125 0.0593771
57.16 0.0451566
57.195 0.0407776
57.23 0.0312735
57.265 0.03011
57.3 0.0192506
57.335 0.022746
57.37 0.0216404
57.405 0.0147391
57.44 0.0052914
57.475 -0.00302442
57.51 0.000467703
57.545 -0.00103945
57.58 -0.00235265
57.615 -0.00518256
57.65 0.011212
57.685 0.000586904
57.72 -0.00881447
57.755 0.0129441
57.79 0.000503193
57.825 -0.00649839
57.86 0.000849877
57.895 0.0106191
57.93 0.00178313
57.965 0.00643518
58 0.0183438
58.035 -0.00167901
58.07 0.00517286
58.105 -0.00204694
58.14 0.0013489
58.175 -0.00358457
58.21 -0.008288
58.245 -0.00737893
58.28 -0.00939339
58.315 -0.00286066
58.35 0.00200518
58.385 -0.00214086
58.42 -0.00471475
58.455 -0.00539332
58.49 0.00760878
58.525 -0.000901995
58.56 -0.00201788
58.595 0.0038685
58.63 0.0146824
58.665 0.0339864
58.7 0.022113
58.735 0.0147099
58.77 0.0166124
58.805 0.00726496
58.84 0.0170738
58.875 0.0159011
58.91 0.0106314
58.945 0.0129457
58.98 0.0171416
59.015 0.0175154
59.05 0.0191625
59.085 0.0229172
59.12 0.0187357
59.155 0.047297
59.19 0.00937145
59.225 0.0279371
59.26 0.0282057
59.295 0.0323243
59.33 0.016204
59.365 0.00214096
59.4 0.00612889
59.435 0.0147915
59.47 0.0160833
59.505 0.00345938
59.54 -0.0146415
59.575 -0.00349742
59.61 0.00515578
59.645 0.00339717
59.68 0.0196869
59.715 0.00426614
59.75 9.10489e-05
59.785 0.00497275
59.82 -0.00677482
59.855 0.00451633
59.89 0.0118586
59.925 0.00463999
59.96 -0.000624612
59.995 0.0100613
60.03 -0.0162224
60.065 0.0245058
60.1 0.0142857
60.135 -0.0033569
60.17 0.00637071
60.205 0.016161
60.24 0.00962562
60.275 0.00928098
60.31 0.0173649
60.345 0.0416441
60.38 0.0410531
60.415 0.0392157
60.45 0.0415424
60.485 0.040816
60.52 0.0647813
60.555 0.0331608
60.59 0.042369
60.625 0.0229778
60.66 0.0565781
60.695 0.0436344
60.73 0.0460578
60.765 0.0655309
60.8 0.0472758
60.835 0.0725698
60.87 0.0662543
60.905 0.0761903
60.94 0.0781039
60.975 0.0728009
61.01 0.0659719
61.045 0.0726738
61.08 0.0622275
61.115 0.0394826
61.15 0.0393701
61.185 0.0407266
61.22 0.0321366
61.255 0.0386077
61.29 0.0450204
61.325 0.024394
61.36 0.0278227
61.395 0.0285647
61.43 0.0445539
61.465 0.0639612
61.5 0.0718995
61.535 0.0764466
61.57 0.0810758
61.605 0.0877025
61.64 0.106549
61.675 0.0980787
61.71 0.116349
61.745 0.103229
61.78 0.13258
61.815 0.138405
61.85 0.137589
61.885 0.142739
61.92 0.130154
61.955 0.110844
61.99 0.100738
62.025 0.0784439
62.06 0.0565512
62.095 0.043179
62.13 0.0434419
62.165 0.0439246
62.2 0.0398855
62.235 0.0414973
62.27 0.0229727
62.305 0.0143682
62.34 0.0262784
62.375 0.0269323
62.41 0.0155162
62.445 0.0130657
62.48 0.0383569
62.515 0.0395825
62.55 0.0215006
62.585 0.0176603
62.62 0.0287726
62.655 0.0254004
62.69 0.0379808
62.725 0.0274585
62.76 0.0213084
62.795 0.028171
62.83 0.0289441
62.865 0.0315701
62.9 0.0247719
62.935 0.0425664
62.97 0.0452555
63.005 0.0436203
63.04 0.0409599
63.075 0.0439911
63.11 0.0501083
63.145 0.036917
63.18 0.0348258
63.215 0.0304651
63.25 0.0288577
63.285 0.0155523
63.32 0.0242308
63.355 0.0184213
63.39 0.0058513
63.425 -0.00145377
63.46 0.00663197
63.495 0.00425707
63.53 -0.00333309
63.565 -0.00205459
63.6 0.000903754
63.635 0.00301386
63.67 -0.0098051
63.705 0.000100562
63.74 -0.00263684
63.775 0.00142224
63.81 -0.00179432
63.845 -0.00766777
63.88 0.000604993
63.915 -0.00164601
63.95 0.00890573
63.985 -0.0117676
64.02 -0.00505204
64.055 0.00707647
64.09 0.00543626
64.125 0.0154664
64.16 0.00499425
64.195 0.0159493
64.23 0.0250859
64.265 -0.00248842
64.3 0.00984785
64.335 0.00974704
64.37 0.0130126
64.405 0.00074515
64.44 0.011546
64.475 0.00443951
64.51 -0.00115771
64.545 -0.00107362
64.58 0.000297926
64.615 0.0110617
64.65 0.0214997
64.685 0.0108216
64.72 0.00859422
64.755 -0.0157004
64.79 -0.00143197
64.825 0.00963496
64.86 -0.00259456
64.895 0.0103505
64.93 -0.00354143
64.965 0.00459407
65 -0.008624
65.035 0.0213476
65.07 0.00458683
65.105 0.0028119
65.14 0.00582679
65.175 -0.00569136
65.21 -0.00795864
65.245 -0.0073421
65.28 0.00669991
65.315 -0.00682398
65.35 0.00191591
65.385 -0.0122659
65.42 -0.0107632
65.455 -0.00786045
65.49 -0.00769897
65.525 0.00289667
65.56 -0.00687143
65.595 0.000111012
65.63 -0.00664477
65.665 -0.00214068
65.7 0.000388478
65.735 -0.00920905
65.77 -0.00135698
65.805 -0.0149923
65.84 -0.00686614
65.875 0.000737051
65.91 -0.0111538
65.945 -0.00457196
65.98 0.0031825
66.015 0.0110012
66.05 0.00655852
66.085 0.0108122
66.12 0.00544336
66.155 0.00707871
66.19 0.0111676
66.225 0.0227335
66.26 0.0292411
66.295 0.046358
66.33 0.0403211
66.365 0.0313755
66.4 0.0250677
66.435 0.0363354
66.47 0.0369483
66.505 0.0323387
66.54 0.0165807
66.575 0.0222789
66.61 0.0109595
66.645 0.00847737
66.68 0.00206522
66.715 -0.00371022
66.75 -0.00427364
66.785 -0.0166931
66.79 -0.0167256