File: data/xrd/xy/4-Fluoro-Benzylammonium_Iodide.lbl_rescaled.xy
# Processed xy data with Haverford two-theta converted to LBL scale
two_theta,intensity
5.81234,9.0
5.8821,10.0
5.95186,10.0
6.02163,14.0
6.0914,8.0
6.16116,16.0
6.23093,15.0
6.3007,12.0
6.37046,27.0
6.44023,30.0
6.51,54.0
6.57977,45.0
6.64954,64.0
6.71931,89.0
6.78908,175.0
6.85886,481.0
6.92863,655.0
6.9984,290.0
7.06818,40.0
7.13795,29.0
7.20773,18.0
7.27751,9.0
7.34728,12.0
7.41706,11.0
7.48684,10.0
7.55662,8.0
7.6264,9.0
7.69618,9.0
7.76596,8.0
7.83574,8.0
7.90553,12.0
7.97531,7.0
8.0451,7.0
8.11488,11.0
8.18467,7.0
8.25445,10.0
8.32424,10.0
8.39403,8.0
8.46382,7.0
8.53361,7.0
8.6034,10.0
8.67319,8.0
8.74299,7.0
8.81278,9.0
8.88257,10.0
8.95237,4.0
9.02217,8.0
9.09196,7.0
9.16176,8.0
9.23156,9.0
9.30136,11.0
9.37116,7.0
9.44096,12.0
9.51076,6.0
9.58057,12.0
9.65037,7.0
9.72018,5.0
9.78998,10.0
9.85979,6.0
9.9296,8.0
9.99941,12.0
10.0692,9.0
10.139,12.0
10.2088,8.0
10.2787,8.0
10.3485,11.0
10.4183,8.0
10.4881,8.0
10.5579,6.0
10.6277,12.0
10.6976,11.0
10.7674,9.0
10.8372,9.0
10.907,9.0
10.9768,12.0
11.0467,10.0
11.1165,7.0
11.1863,10.0
11.2561,12.0
11.326,12.0
11.3958,7.0
11.4656,9.0
11.5355,10.0
11.6053,5.0
11.6751,10.0
11.745,6.0
11.8148,7.0
11.8846,10.0
11.9545,11.0
12.0243,11.0
12.0942,12.0
12.164,8.0
12.2338,10.0
12.3037,8.0
12.3735,9.0
12.4434,13.0
12.5132,14.0
12.5831,11.0
12.6529,13.0
12.7228,9.0
12.7926,7.0
12.8625,10.0
12.9324,9.0
13.0022,11.0
13.0721,8.0
13.1419,14.0
13.2118,8.0
13.2817,16.0
13.3515,10.0
13.4214,12.0
13.4912,9.0
13.5611,16.0
13.631,9.0
13.7009,24.0
13.7707,23.0
13.8406,49.0
13.9105,94.0
13.9803,93.0
14.0502,34.0
14.1201,14.0
14.19,15.0
14.2599,14.0
14.3297,14.0
14.3996,15.0
14.4695,9.0
14.5394,17.0
14.6093,11.0
14.6792,15.0
14.7491,12.0
14.819,14.0
14.8889,13.0
14.9588,12.0
15.0287,9.0
15.0985,14.0
15.1684,7.0
15.2384,10.0
15.3083,15.0
15.3782,19.0
15.4481,13.0
15.518,14.0
15.5879,15.0
15.6578,14.0
15.7277,10.0
15.7976,16.0
15.8675,12.0
15.9374,18.0
16.0074,15.0
16.0773,16.0
16.1472,14.0
16.2171,11.0
16.2871,20.0
16.357,10.0
16.4269,11.0
16.4968,14.0
16.5668,17.0
16.6367,16.0
16.7066,15.0
16.7766,16.0
16.8465,16.0
16.9165,12.0
16.9864,10.0
17.0563,21.0
17.1263,13.0
17.1962,12.0
17.2662,21.0
17.3361,19.0
17.4061,13.0
17.476,10.0
17.546,17.0
17.6159,17.0
17.6859,17.0
17.7559,17.0
17.8258,25.0
17.8958,24.0
17.9658,15.0
18.0357,22.0
18.1057,13.0
18.1757,21.0
18.2456,12.0
18.3156,21.0
18.3856,25.0
18.4556,21.0
18.5255,26.0
18.5955,15.0
18.6655,21.0
18.7355,21.0
18.8055,13.0
18.8755,12.0
18.9455,29.0
19.0155,27.0
19.0854,19.0
19.1554,19.0
19.2254,24.0
19.2954,15.0
19.3654,21.0
19.4354,25.0
19.5055,18.0
19.5755,26.0
19.6455,22.0
19.7155,22.0
19.7855,24.0
19.8555,18.0
19.9255,23.0
19.9956,31.0
20.0656,18.0
20.1356,26.0
20.2056,26.0
20.2757,27.0
20.3457,26.0
20.4157,24.0
20.4858,32.0
20.5558,22.0
20.6258,24.0
20.6959,36.0
20.7659,45.0
20.836,60.0
20.906,95.0
20.9761,111.0
21.0461,106.0
21.1162,68.0
21.1862,42.0
21.2563,42.0
21.3263,31.0
21.3964,32.0
21.4665,27.0
21.5365,41.0
21.6066,29.0
21.6767,33.0
21.7467,30.0
21.8168,39.0
21.8869,28.0
21.957,21.0
22.027,26.0
22.0971,27.0
22.1672,34.0
22.2373,36.0
22.3074,40.0
22.3775,26.0
22.4476,37.0
22.5177,32.0
22.5878,40.0
22.6579,42.0
22.728,55.0
22.7981,51.0
22.8682,54.0
22.9383,46.0
23.0084,35.0
23.0785,39.0
23.1487,34.0
23.2188,44.0
23.2889,37.0
23.359,39.0
23.4292,45.0
23.4993,35.0
23.5694,39.0
23.6395,37.0
23.7097,43.0
23.7798,47.0
23.85,37.0
23.9201,55.0
23.9903,35.0
24.0604,38.0
24.1306,42.0
24.2007,44.0
24.2709,36.0
24.341,29.0
24.4112,48.0
24.4814,37.0
24.5515,32.0
24.6217,42.0
24.6919,50.0
24.762,46.0
24.8322,39.0
24.9024,37.0
24.9726,36.0
25.0428,46.0
25.1129,46.0
25.1831,51.0
25.2533,54.0
25.3235,37.0
25.3937,55.0
25.4639,33.0
25.5341,43.0
25.6043,51.0
25.6745,41.0
25.7447,56.0
25.815,43.0
25.8852,56.0
25.9554,46.0
26.0256,51.0
26.0958,47.0
26.1661,68.0
26.2363,99.0
26.3065,92.0
26.3768,78.0
26.447,54.0
26.5172,46.0
26.5875,56.0
26.6577,55.0
26.728,66.0
26.7982,40.0
26.8685,55.0
26.9387,51.0
27.009,53.0
27.0793,58.0
27.1495,49.0
27.2198,44.0
27.2901,43.0
27.3603,50.0
27.4306,54.0
27.5009,49.0
27.5712,59.0
27.6415,53.0
27.7117,51.0
27.782,45.0
27.8523,52.0
27.9226,64.0
27.9929,73.0
28.0632,99.0
28.1335,129.0
28.2038,141.0
28.2742,84.0
28.3445,68.0
28.4148,59.0
28.4851,53.0
28.5554,53.0
28.6258,53.0
28.6961,46.0
28.7664,52.0
28.8368,47.0
28.9071,47.0
28.9774,55.0
29.0478,68.0
29.1181,73.0
29.1885,87.0
29.2588,68.0
29.3292,58.0
29.3995,47.0
29.4699,49.0
29.5403,41.0
29.6106,46.0
29.681,57.0
29.7514,55.0
29.8218,54.0
29.8921,36.0
29.9625,49.0
30.0329,49.0
30.1033,43.0
30.1737,53.0
30.2441,40.0
30.3145,51.0
30.3849,45.0
30.4553,50.0
30.5257,42.0
30.5961,49.0
30.6666,51.0
30.737,40.0
30.8074,44.0
30.8778,43.0
30.9482,39.0
31.0187,49.0
31.0891,45.0
31.1596,37.0
31.23,42.0
31.3004,41.0
31.3709,49.0
31.4413,44.0
31.5118,50.0
31.5823,58.0
31.6527,57.0
31.7232,63.0
31.7937,60.0
31.8641,45.0
31.9346,48.0
32.0051,48.0
32.0756,56.0
32.1461,57.0
32.2166,60.0
32.287,64.0
32.3575,89.0
32.428,86.0
32.4985,83.0
32.5691,61.0
32.6396,54.0
32.7101,51.0
32.7806,54.0
32.8511,62.0
32.9216,50.0
32.9922,56.0
33.0627,49.0
33.1332,63.0
33.2038,59.0
33.2743,51.0
33.3449,52.0
33.4154,44.0
33.486,33.0
33.5565,43.0
33.6271,34.0
33.6977,47.0
33.7682,50.0
33.8388,41.0
33.9094,44.0
33.9799,41.0
34.0505,45.0
34.1211,32.0
34.1917,37.0
34.2623,45.0
34.3329,46.0
34.4035,38.0
34.4741,49.0
34.5447,50.0
34.6153,51.0
34.6859,56.0
34.7566,42.0
34.8272,40.0
34.8978,36.0
34.9684,49.0
35.0391,42.0
35.1097,48.0
35.1804,52.0
35.251,65.0
35.3217,81.0
35.3923,125.0
35.463,162.0
35.5336,87.0
35.6043,44.0
35.675,36.0
35.7457,44.0
35.8163,38.0
35.887,32.0
35.9577,44.0
36.0284,39.0
36.0991,31.0
36.1698,39.0
36.2405,45.0
36.3112,46.0
36.3819,28.0
36.4526,34.0
36.5233,32.0
36.594,37.0
36.6648,41.0
36.7355,37.0
36.8062,38.0
36.877,33.0
36.9477,45.0
37.0185,32.0
37.0892,32.0
37.16,41.0
37.2307,38.0
37.3015,44.0
37.3723,34.0
37.443,38.0
37.5138,39.0
37.5846,40.0
37.6554,43.0
37.7262,47.0
37.7969,53.0
37.8677,49.0
37.9385,46.0
38.0094,37.0
38.0802,40.0
38.151,38.0
38.2218,45.0
38.2926,32.0
38.3634,34.0
38.4343,43.0
38.5051,44.0
38.5759,42.0
38.6468,38.0
38.7176,33.0
38.7885,37.0
38.8593,37.0
38.9302,32.0
39.0011,34.0
39.0719,34.0
39.1428,36.0
39.2137,33.0
39.2846,32.0
39.3555,29.0
39.4264,37.0
39.4972,33.0
39.5681,29.0
39.6391,26.0
39.71,27.0
39.7809,28.0
39.8518,35.0
39.9227,33.0
39.9936,33.0
40.0646,25.0
40.1355,27.0
40.2065,24.0
40.2774,30.0
40.3484,23.0
40.4193,32.0
40.4903,27.0
40.5612,30.0
40.6322,31.0
40.7032,27.0
40.7742,33.0
40.8451,31.0
40.9161,37.0
40.9871,37.0
41.0581,33.0
41.1291,32.0
41.2001,28.0
41.2711,18.0
41.3421,37.0
41.4132,20.0
41.4842,20.0
41.5552,30.0
41.6263,28.0
41.6973,27.0
41.7683,24.0
41.8394,29.0
41.9104,26.0
41.9815,19.0
42.0526,18.0
42.1236,22.0
42.1947,24.0
42.2658,22.0
42.3369,22.0
42.408,24.0
42.4791,32.0
42.5502,28.0
42.6213,25.0
42.6924,40.0
42.7635,45.0
42.8346,56.0
42.9057,39.0
42.9768,38.0
43.048,34.0
43.1191,23.0
43.1903,21.0
43.2614,30.0
43.3326,25.0
43.4037,28.0
43.4749,19.0
43.5461,25.0
43.6172,22.0
43.6884,25.0
43.7596,18.0
43.8308,27.0
43.902,22.0
43.9732,22.0
44.0444,19.0
44.1156,19.0
44.1868,22.0
44.258,18.0
44.3292,25.0
44.4005,17.0
44.4717,22.0
44.543,21.0
44.6142,20.0
44.6855,20.0
44.7567,17.0
44.828,20.0
44.8992,27.0
44.9705,17.0
45.0418,25.0
45.1131,19.0
45.1844,18.0
45.2557,20.0
45.327,25.0
45.3983,18.0
45.4696,22.0
45.5409,16.0
45.6122,18.0
45.6835,17.0
45.7549,24.0
45.8262,16.0
45.8975,23.0
45.9689,19.0
46.0403,28.0
46.1116,18.0
46.183,22.0
46.2543,25.0
46.3257,20.0
46.3971,26.0
46.4685,23.0
46.5399,16.0
46.6113,18.0
46.6827,21.0
46.7541,19.0
46.8255,24.0
46.8969,19.0
46.9684,17.0
47.0398,21.0
47.1112,22.0
47.1827,20.0
47.2541,21.0
47.3256,24.0
47.3971,21.0
47.4685,24.0
47.54,21.0
47.6115,29.0
47.683,20.0
47.7544,22.0
47.8259,25.0
47.8974,19.0
47.969,17.0
48.0405,24.0
48.112,25.0
48.1835,23.0
48.255,31.0
48.3266,29.0
48.3981,19.0
48.4697,19.0
48.5412,25.0
48.6128,24.0
48.6844,18.0
48.7559,24.0
48.8275,24.0
48.8991,28.0
48.9707,22.0
49.0423,24.0
49.1139,28.0
49.1855,17.0
49.2571,14.0
49.3287,21.0
49.4004,23.0
49.472,17.0
49.5436,24.0
49.6153,26.0
49.6869,26.0
49.7586,23.0
49.8303,22.0
49.9019,18.0
49.9736,18.0
50.0453,19.0
50.117,19.0
50.1887,25.0
50.2604,23.0
50.3321,25.0
50.4038,33.0
50.4755,20.0
50.5473,25.0
50.619,25.0
50.6907,25.0
50.7625,25.0
50.8342,25.0
50.906,18.0
50.9778,17.0
51.0495,18.0
51.1213,17.0
51.1931,10.0
51.2649,20.0
51.3367,20.0
51.4085,23.0
51.4803,17.0
51.5521,17.0
51.624,18.0
51.6958,22.0
51.7676,21.0
51.8395,19.0
51.9113,22.0
51.9832,22.0
52.0551,15.0
52.1269,19.0
52.1988,21.0
52.2707,21.0
52.3426,20.0
52.4145,19.0
52.4864,23.0
52.5583,24.0
52.6302,16.0
52.7021,20.0
52.7741,21.0
52.846,21.0
52.918,23.0
52.9899,25.0
53.0619,30.0
53.1338,36.0
53.2058,27.0
53.2778,25.0
53.3498,24.0
53.4218,27.0
53.4938,15.0
53.5658,19.0
53.6378,22.0
53.7098,24.0
53.7818,21.0
53.8539,17.0
53.9259,21.0
53.998,24.0
54.07,24.0
54.1421,24.0
54.2142,35.0
54.2862,27.0
54.3583,17.0
54.4304,21.0
54.5025,15.0
54.5746,22.0
54.6467,23.0
54.7189,20.0
54.791,18.0
54.8631,16.0
54.9353,21.0
55.0074,19.0
55.0796,19.0
55.1518,17.0
55.2239,23.0
55.2961,19.0
55.3683,20.0
55.4405,18.0
55.5127,21.0
55.5849,21.0
55.6571,17.0
55.7293,26.0
55.8016,17.0
55.8738,21.0
55.9461,19.0
56.0183,18.0
56.0906,25.0
56.1628,16.0
56.2351,16.0
56.3074,16.0
56.3797,21.0
56.452,24.0
56.5243,18.0
56.5966,21.0
56.6689,20.0
56.7413,21.0
56.8136,17.0
56.886,24.0
56.9583,26.0
57.0307,16.0
57.103,23.0
57.1754,21.0
57.2478,19.0
57.3202,15.0
57.3926,26.0
57.465,15.0
57.5374,17.0
57.6098,19.0
57.6823,19.0
57.7547,18.0
57.8272,15.0
57.8996,19.0
57.9721,20.0
58.0446,18.0
58.117,16.0
58.1895,16.0
58.262,22.0
58.3345,16.0
58.407,22.0
58.4796,19.0
58.5521,17.0
58.6246,22.0
58.6972,18.0
58.7697,16.0
58.8423,18.0
58.9148,18.0
58.9874,19.0
59.06,14.0
59.1326,17.0
59.2052,15.0
59.2778,21.0
59.3504,16.0
59.4231,15.0
59.4957,19.0
59.5683,15.0
59.641,17.0
59.7136,17.0
59.7863,14.0
59.859,21.0
59.9317,19.0
60.0044,19.0
60.0771,18.0
60.1498,21.0
60.2225,23.0
60.2952,17.0
60.368,16.0
60.4407,19.0
60.5135,18.0
60.5862,19.0
60.659,17.0
60.7318,24.0
60.8046,28.0
60.8774,33.0
60.9502,22.0
61.023,18.0
61.0958,17.0
61.1686,17.0
61.2415,17.0
61.3143,23.0
61.3872,13.0
61.4601,17.0
61.5329,16.0
61.6058,23.0
61.6787,17.0
61.7516,18.0
61.8245,16.0
61.8974,20.0
61.9704,18.0
62.0433,18.0
62.1163,15.0
62.1892,13.0
62.2622,18.0
62.3352,11.0
62.4081,13.0
62.4811,16.0
62.5541,14.0
62.6272,16.0
62.7002,16.0
62.7732,15.0
62.8462,20.0
62.9193,22.0
62.9923,26.0
63.0654,17.0
63.1385,20.0
63.2116,18.0
63.2847,16.0
63.3578,19.0
63.4309,17.0
63.504,14.0
63.5771,15.0
63.6503,18.0
63.7234,20.0
63.7966,17.0
63.8698,18.0
63.943,14.0
64.0161,15.0
64.0893,19.0
64.1625,13.0
64.2358,22.0
64.309,15.0
64.3822,13.0
64.4555,15.0
64.5287,16.0
64.602,20.0
64.6753,18.0
64.7486,18.0
64.8219,15.0
64.8952,20.0
64.9685,17.0
65.0418,14.0
65.1151,17.0
65.1885,12.0
65.2619,12.0
65.3352,19.0
65.4086,20.0
65.482,15.0
65.5554,17.0
65.6288,16.0
65.7022,13.0
65.7756,20.0
65.8491,15.0
65.9225,12.0
65.996,21.0
66.0694,16.0
66.1429,21.0
66.2164,18.0
66.2899,19.0
66.3634,21.0
66.4369,16.0
66.5104,16.0
66.584,17.0
66.6575,22.0
66.7311,18.0
66.8047,19.0
66.8782,19.0
66.9518,21.0
67.0254,27.0
67.099,15.0
67.1727,22.0
67.2463,17.0
67.3199,14.0
67.3936,20.0
67.4673,16.0
67.5409,16.0
67.6146,22.0
67.6883,16.0
67.762,12.0
67.8357,19.0
67.9095,21.0
67.9832,17.0
68.057,15.0
68.1307,19.0
68.2045,17.0
68.2783,14.0
68.3521,19.0
68.4259,17.0
68.4997,20.0
68.5735,20.0
68.6473,22.0
68.7212,26.0
68.7951,19.0
68.8689,14.0
68.9428,15.0
69.0167,16.0
69.0906,18.0
69.1645,18.0
69.2384,20.0
69.3124,16.0
69.3863,21.0
69.4603,14.0
69.5343,15.0
69.6082,17.0
69.6822,13.0
69.7562,16.0
69.8303,14.0
69.9043,11.0
69.9783,14.0
70.0524,24.0
70.1264,20.0
70.2005,20.0
70.2746,18.0
70.3487,22.0
70.4228,17.0
70.4969,24.0
70.5711,15.0
70.6452,18.0
70.7194,12.0
70.7935,13.0
70.8677,14.0
70.9419,23.0
71.0161,17.0
71.0903,19.0
71.1646,15.0
71.2388,18.0
71.313,15.0
71.3873,22.0
71.4616,21.0
71.5359,12.0
71.6102,16.0
71.6845,20.0
71.7588,21.0
71.8331,14.0
71.9075,10.0
71.9818,15.0
72.0562,20.0
72.1306,20.0
72.205,23.0
72.2794,17.0
72.3538,15.0
72.4283,18.0
72.5027,12.0
72.5772,17.0
72.6516,17.0
72.7261,22.0
72.8006,15.0
72.8751,21.0
72.9497,15.0
73.0242,23.0
73.0987,15.0
73.1733,23.0
73.2479,20.0
73.3224,18.0
73.397,18.0
73.4717,19.0
73.5463,17.0
73.6209,20.0
73.6956,14.0
73.7702,23.0
73.8449,15.0
73.9196,19.0
73.9943,13.0
74.069,16.0
74.1437,14.0
74.2185,11.0
74.2932,23.0
74.368,23.0
74.4428,17.0
74.5176,17.0
74.5924,21.0
74.6672,19.0
74.742,13.0
74.8169,17.0
74.8917,27.0
74.9666,21.0
75.0415,20.0
75.1164,18.0
75.1913,17.0
75.2662,28.0
75.3412,12.0
75.4161,19.0
75.4911,25.0
75.5661,18.0
75.6411,14.0
75.7161,17.0
75.7911,16.0
75.8661,12.0
75.9412,17.0
76.0162,10.0
76.0913,20.0
76.1664,14.0
76.2415,13.0
76.3166,13.0
76.3918,18.0
76.4669,10.0
76.5421,11.0
76.6172,20.0
76.6924,19.0
76.7676,17.0
76.8428,14.0
76.9181,9.0
76.9933,16.0
77.0686,15.0
77.1439,21.0
77.2192,19.0
77.2945,16.0
77.3698,22.0
77.4451,20.0
77.5205,16.0
77.5958,17.0
77.6712,11.0
77.7466,14.0
77.822,13.0
77.8974,15.0
77.9728,17.0
78.0483,14.0
78.1238,10.0
78.1992,18.0
78.2747,15.0
78.3502,14.0
78.4258,19.0
78.5013,12.0
78.5769,12.0
78.6524,19.0
78.728,20.0
78.8036,18.0
78.8792,11.0
78.9549,22.0
79.0305,16.0
79.1062,18.0
79.1818,17.0
79.2575,21.0
79.3332,16.0
79.409,21.0
79.4847,15.0
79.5604,13.0
79.6362,17.0
79.712,16.0
79.7878,19.0
79.8636,17.0
79.9394,14.0
80.0153,17.0
80.0912,19.0
80.167,11.0
80.2429,14.0
80.3188,16.0
80.3948,16.0
80.4707,11.0
80.5467,14.0
80.6226,18.0
80.6986,17.0
80.7746,14.0
80.8507,17.0
80.9267,19.0
81.0028,12.0
81.0788,20.0
81.1549,18.0
81.231,12.0
81.3071,20.0
81.3833,15.0
81.4594,16.0
81.5356,11.0
81.6118,12.0
81.688,14.0
81.7642,13.0
81.8404,14.0
81.9167,20.0
81.993,15.0
82.0693,10.0
82.1456,13.0
82.2219,14.0
82.2982,18.0
82.3746,18.0
82.4509,13.0
82.5273,16.0
82.6037,9.0
82.6802,13.0
82.7566,14.0
82.8331,14.0
82.9095,18.0
82.986,11.0
83.0625,15.0
83.1391,14.0
83.2156,11.0
83.2922,13.0
83.3687,11.0
83.4453,15.0
83.522,12.0
83.5986,19.0
83.6241,15.0