File: data/xrd/xy/4_Trifluromethylbenzylammonium_Iodide.lbl_rescaled.xy
# Processed xy data with Haverford two-theta converted to LBL scale
two_theta,intensity
5.81234,336.0
5.8821,1397.0
5.95186,1069.0
6.02163,122.0
6.0914,21.0
6.16116,11.0
6.23093,11.0
6.3007,7.0
6.37046,8.0
6.44023,5.0
6.51,7.0
6.57977,6.0
6.64954,10.0
6.71931,6.0
6.78908,7.0
6.85886,7.0
6.92863,3.0
6.9984,9.0
7.06818,8.0
7.13795,11.0
7.20773,3.0
7.27751,6.0
7.34728,3.0
7.41706,9.0
7.48684,9.0
7.55662,4.0
7.6264,8.0
7.69618,4.0
7.76596,7.0
7.83574,7.0
7.90553,6.0
7.97531,5.0
8.0451,6.0
8.11488,8.0
8.18467,3.0
8.25445,5.0
8.32424,8.0
8.39403,9.0
8.46382,6.0
8.53361,4.0
8.6034,8.0
8.67319,7.0
8.74299,7.0
8.81278,5.0
8.88257,7.0
8.95237,7.0
9.02217,4.0
9.09196,8.0
9.16176,6.0
9.23156,5.0
9.30136,8.0
9.37116,8.0
9.44096,7.0
9.51076,8.0
9.58057,1.0
9.65037,5.0
9.72018,6.0
9.78998,8.0
9.85979,6.0
9.9296,4.0
9.99941,5.0
10.0692,8.0
10.139,8.0
10.2088,6.0
10.2787,5.0
10.3485,5.0
10.4183,5.0
10.4881,4.0
10.5579,6.0
10.6277,5.0
10.6976,7.0
10.7674,8.0
10.8372,7.0
10.907,5.0
10.9768,6.0
11.0467,6.0
11.1165,7.0
11.1863,9.0
11.2561,10.0
11.326,12.0
11.3958,18.0
11.4656,19.0
11.5355,37.0
11.6053,63.0
11.6751,117.0
11.745,478.0
11.8148,1549.0
11.8846,1370.0
11.9545,180.0
12.0243,40.0
12.0942,21.0
12.164,16.0
12.2338,11.0
12.3037,9.0
12.3735,5.0
12.4434,6.0
12.5132,5.0
12.5831,7.0
12.6529,5.0
12.7228,6.0
12.7926,7.0
12.8625,2.0
12.9324,5.0
13.0022,6.0
13.0721,6.0
13.1419,5.0
13.2118,8.0
13.2817,7.0
13.3515,4.0
13.4214,3.0
13.4912,7.0
13.5611,4.0
13.631,4.0
13.7009,6.0
13.7707,3.0
13.8406,4.0
13.9105,1.0
13.9803,6.0
14.0502,5.0
14.1201,3.0
14.19,4.0
14.2599,5.0
14.3297,4.0
14.3996,6.0
14.4695,4.0
14.5394,6.0
14.6093,5.0
14.6792,5.0
14.7491,6.0
14.819,7.0
14.8889,8.0
14.9588,5.0
15.0287,4.0
15.0985,5.0
15.1684,5.0
15.2384,5.0
15.3083,3.0
15.3782,3.0
15.4481,5.0
15.518,6.0
15.5879,5.0
15.6578,5.0
15.7277,4.0
15.7976,2.0
15.8675,13.0
15.9374,7.0
16.0074,7.0
16.0773,6.0
16.1472,3.0
16.2171,7.0
16.2871,2.0
16.357,5.0
16.4269,3.0
16.4968,5.0
16.5668,6.0
16.6367,6.0
16.7066,7.0
16.7766,3.0
16.8465,1.0
16.9165,6.0
16.9864,2.0
17.0563,1.0
17.1263,7.0
17.1962,3.0
17.2662,7.0
17.3361,1.0
17.4061,4.0
17.476,3.0
17.546,2.0
17.6159,4.0
17.6859,8.0
17.7559,16.0
17.8258,20.0
17.8958,22.0
17.9658,3.0
18.0357,1.0
18.1057,4.0
18.1757,4.0
18.2456,6.0
18.3156,6.0
18.3856,4.0
18.4556,6.0
18.5255,4.0
18.5955,6.0
18.6655,7.0
18.7355,2.0
18.8055,5.0
18.8755,4.0
18.9455,4.0
19.0155,1.0
19.0854,5.0
19.1554,2.0
19.2254,4.0
19.2954,5.0
19.3654,1.0
19.4354,3.0
19.5055,3.0
19.5755,4.0
19.6455,4.0
19.7155,4.0
19.7855,6.0
19.8555,3.0
19.9255,6.0
19.9956,6.0
20.0656,14.0
20.1356,12.0
20.2056,12.0
20.2757,10.0
20.3457,3.0
20.4157,4.0
20.4858,5.0
20.5558,5.0
20.6258,1.0
20.6959,6.0
20.7659,4.0
20.836,6.0
20.906,8.0
20.9761,4.0
21.0461,5.0
21.1162,7.0
21.1862,5.0
21.2563,0.0
21.3263,4.0
21.3964,7.0
21.4665,1.0
21.5365,5.0
21.6066,4.0
21.6767,3.0
21.7467,3.0
21.8168,6.0
21.8869,8.0
21.957,4.0
22.027,4.0
22.0971,4.0
22.1672,1.0
22.2373,3.0
22.3074,4.0
22.3775,6.0
22.4476,15.0
22.5177,5.0
22.5878,9.0
22.6579,11.0
22.728,5.0
22.7981,7.0
22.8682,11.0
22.9383,8.0
23.0084,10.0
23.0785,5.0
23.1487,3.0
23.2188,9.0
23.2889,13.0
23.359,17.0
23.4292,16.0
23.4993,20.0
23.5694,27.0
23.6395,61.0
23.7097,153.0
23.7798,528.0
23.85,817.0
23.9201,317.0
23.9903,65.0
24.0604,24.0
24.1306,25.0
24.2007,27.0
24.2709,13.0
24.341,9.0
24.4112,4.0
24.4814,8.0
24.5515,5.0
24.6217,4.0
24.6919,2.0
24.762,4.0
24.8322,7.0
24.9024,5.0
24.9726,4.0
25.0428,6.0
25.1129,4.0
25.1831,4.0
25.2533,2.0
25.3235,5.0
25.3937,5.0
25.4639,2.0
25.5341,5.0
25.6043,9.0
25.6745,5.0
25.7447,9.0
25.815,13.0
25.8852,7.0
25.9554,3.0
26.0256,4.0
26.0958,3.0
26.1661,2.0
26.2363,4.0
26.3065,1.0
26.3768,6.0
26.447,3.0
26.5172,6.0
26.5875,5.0
26.6577,4.0
26.728,2.0
26.7982,3.0
26.8685,3.0
26.9387,7.0
27.009,5.0
27.0793,5.0
27.1495,6.0
27.2198,7.0
27.2901,8.0
27.3603,5.0
27.4306,5.0
27.5009,7.0
27.5712,3.0
27.6415,7.0
27.7117,8.0
27.782,8.0
27.8523,3.0
27.9226,3.0
27.9929,14.0
28.0632,2.0
28.1335,2.0
28.2038,8.0
28.2742,8.0
28.3445,4.0
28.4148,4.0
28.4851,6.0
28.5554,7.0
28.6258,5.0
28.6961,10.0
28.7664,6.0
28.8368,13.0
28.9071,20.0
28.9774,16.0
29.0478,13.0
29.1181,15.0
29.1885,21.0
29.2588,25.0
29.3292,30.0
29.3995,33.0
29.4699,35.0
29.5403,52.0
29.6106,60.0
29.681,111.0
29.7514,322.0
29.8218,978.0
29.8921,1750.0
29.9625,1292.0
30.0329,411.0
30.1033,72.0
30.1737,40.0
30.2441,29.0
30.3145,32.0
30.3849,18.0
30.4553,17.0
30.5257,12.0
30.5961,13.0
30.6666,16.0
30.737,9.0
30.8074,10.0
30.8778,9.0
30.9482,6.0
31.0187,8.0
31.0891,6.0
31.1596,9.0
31.23,9.0
31.3004,16.0
31.3709,23.0
31.4413,21.0
31.5118,13.0
31.5823,12.0
31.6527,7.0
31.7232,10.0
31.7937,9.0
31.8641,8.0
31.9346,11.0
32.0051,9.0
32.0756,7.0
32.1461,8.0
32.2166,3.0
32.287,5.0
32.3575,5.0
32.428,14.0
32.4985,9.0
32.5691,6.0
32.6396,10.0
32.7101,5.0
32.7806,3.0
32.8511,4.0
32.9216,7.0
32.9922,6.0
33.0627,6.0
33.1332,4.0
33.2038,11.0
33.2743,6.0
33.3449,7.0
33.4154,10.0
33.486,10.0
33.5565,5.0
33.6271,8.0
33.6977,10.0
33.7682,11.0
33.8388,11.0
33.9094,10.0
33.9799,8.0
34.0505,13.0
34.1211,17.0
34.1917,14.0
34.2623,10.0
34.3329,9.0
34.4035,8.0
34.4741,6.0
34.5447,7.0
34.6153,7.0
34.6859,9.0
34.7566,8.0
34.8272,6.0
34.8978,6.0
34.9684,8.0
35.0391,9.0
35.1097,9.0
35.1804,12.0
35.251,12.0
35.3217,15.0
35.3923,14.0
35.463,19.0
35.5336,23.0
35.6043,37.0
35.675,49.0
35.7457,64.0
35.8163,128.0
35.887,256.0
35.9577,596.0
36.0284,1573.0
36.0991,2050.0
36.1698,1214.0
36.2405,449.0
36.3112,110.0
36.3819,49.0
36.4526,42.0
36.5233,36.0
36.594,25.0
36.6648,12.0
36.7355,12.0
36.8062,18.0
36.877,15.0
36.9477,11.0
37.0185,11.0
37.0892,9.0
37.16,11.0
37.2307,9.0
37.3015,10.0
37.3723,8.0
37.443,8.0
37.5138,7.0
37.5846,6.0
37.6554,9.0
37.7262,11.0
37.7969,8.0
37.8677,5.0
37.9385,7.0
38.0094,9.0
38.0802,5.0
38.151,7.0
38.2218,6.0
38.2926,7.0
38.3634,6.0
38.4343,7.0
38.5051,2.0
38.5759,8.0
38.6468,7.0
38.7176,7.0
38.7885,10.0
38.8593,8.0
38.9302,4.0
39.0011,7.0
39.0719,9.0
39.1428,5.0
39.2137,6.0
39.2846,10.0
39.3555,0.0
39.4264,5.0
39.4972,6.0
39.5681,7.0
39.6391,6.0
39.71,7.0
39.7809,4.0
39.8518,8.0
39.9227,5.0
39.9936,7.0
40.0646,8.0
40.1355,12.0
40.2065,13.0
40.2774,4.0
40.3484,6.0
40.4193,4.0
40.4903,7.0
40.5612,9.0
40.6322,5.0
40.7032,5.0
40.7742,4.0
40.8451,3.0
40.9161,6.0
40.9871,6.0
41.0581,6.0
41.1291,6.0
41.2001,6.0
41.2711,8.0
41.3421,7.0
41.4132,8.0
41.4842,7.0
41.5552,7.0
41.6263,4.0
41.6973,9.0
41.7683,14.0
41.8394,10.0
41.9104,12.0
41.9815,31.0
42.0526,27.0
42.1236,78.0
42.1947,129.0
42.2658,315.0
42.3369,650.0
42.408,674.0
42.4791,386.0
42.5502,136.0
42.6213,41.0
42.6924,26.0
42.7635,20.0
42.8346,11.0
42.9057,17.0
42.9768,9.0
43.048,8.0
43.1191,4.0
43.1903,10.0
43.2614,5.0
43.3326,8.0
43.4037,6.0
43.4749,5.0
43.5461,6.0
43.6172,8.0
43.6884,6.0
43.7596,4.0
43.8308,5.0
43.902,8.0
43.9732,8.0
44.0444,9.0
44.1156,4.0
44.1868,8.0
44.258,4.0
44.3292,5.0
44.4005,7.0
44.4717,7.0
44.543,5.0
44.6142,4.0
44.6855,2.0
44.7567,4.0
44.828,6.0
44.8992,4.0
44.9705,3.0
45.0418,6.0
45.1131,5.0
45.1844,8.0
45.2557,3.0
45.327,4.0
45.3983,8.0
45.4696,5.0
45.5409,4.0
45.6122,12.0
45.6835,10.0
45.7549,11.0
45.8262,6.0
45.8975,3.0
45.9689,8.0
46.0403,6.0
46.1116,5.0
46.183,4.0
46.2543,7.0
46.3257,6.0
46.3971,6.0
46.4685,2.0
46.5399,8.0
46.6113,7.0
46.6827,7.0
46.7541,9.0
46.8255,5.0
46.8969,4.0
46.9684,5.0
47.0398,6.0
47.1112,4.0
47.1827,7.0
47.2541,4.0
47.3256,4.0
47.3971,7.0
47.4685,5.0
47.54,3.0
47.6115,5.0
47.683,12.0
47.7544,3.0
47.8259,6.0
47.8974,3.0
47.969,5.0
48.0405,5.0
48.112,5.0
48.1835,0.0
48.255,3.0
48.3266,9.0
48.3981,9.0
48.4697,14.0
48.5412,33.0
48.6128,63.0
48.6844,159.0
48.7559,228.0
48.8275,202.0
48.8991,133.0
48.9707,55.0
49.0423,17.0
49.1139,12.0
49.1855,5.0
49.2571,6.0
49.3287,7.0
49.4004,9.0
49.472,10.0
49.5436,16.0
49.6153,18.0
49.6869,11.0
49.7586,12.0
49.8303,6.0
49.9019,7.0
49.9736,4.0
50.0453,4.0
50.117,9.0
50.1887,8.0
50.2604,4.0
50.3321,3.0
50.4038,2.0
50.4755,4.0
50.5473,4.0
50.619,5.0
50.6907,4.0
50.7625,3.0
50.8342,4.0
50.906,4.0
50.9778,4.0
51.0495,5.0
51.1213,4.0
51.1931,5.0
51.2649,4.0
51.3367,4.0
51.4085,5.0
51.4803,7.0
51.5521,5.0
51.624,14.0
51.6958,17.0
51.7676,14.0
51.8395,14.0
51.9113,6.0
51.9832,8.0
52.0551,1.0
52.1269,5.0
52.1988,1.0
52.2707,2.0
52.3426,4.0
52.4145,3.0
52.4864,2.0
52.5583,3.0
52.6302,3.0
52.7021,2.0
52.7741,3.0
52.846,0.0
52.918,4.0
52.9899,2.0
53.0619,5.0
53.1338,2.0
53.2058,1.0
53.2778,3.0
53.3498,3.0
53.4218,4.0
53.4938,6.0
53.5658,4.0
53.6378,8.0
53.7098,5.0
53.7818,7.0
53.8539,3.0
53.9259,4.0
53.998,3.0
54.07,2.0
54.1421,0.0
54.2142,3.0
54.2862,4.0
54.3583,5.0
54.4304,4.0
54.5025,3.0
54.5746,4.0
54.6467,3.0
54.7189,3.0
54.791,5.0
54.8631,3.0
54.9353,3.0
55.0074,4.0
55.0796,7.0
55.1518,5.0
55.2239,5.0
55.2961,10.0
55.3683,8.0
55.4405,9.0
55.5127,9.0
55.5849,8.0
55.6571,12.0
55.7293,4.0
55.8016,7.0
55.8738,8.0
55.9461,3.0
56.0183,8.0
56.0906,3.0
56.1628,3.0
56.2351,4.0
56.3074,5.0
56.3797,9.0
56.452,4.0
56.5243,3.0
56.5966,5.0
56.6689,5.0
56.7413,3.0
56.8136,2.0
56.886,2.0
56.9583,3.0
57.0307,4.0
57.103,1.0
57.1754,6.0
57.2478,7.0
57.3202,2.0
57.3926,3.0
57.465,3.0
57.5374,6.0
57.6098,3.0
57.6823,4.0
57.7547,7.0
57.8272,4.0
57.8996,15.0
57.9721,33.0
58.0446,29.0
58.117,24.0
58.1895,21.0
58.262,11.0
58.3345,9.0
58.407,4.0
58.4796,6.0
58.5521,5.0
58.6246,3.0
58.6972,3.0
58.7697,5.0
58.8423,4.0
58.9148,2.0
58.9874,5.0
59.06,3.0
59.1326,3.0
59.2052,4.0
59.2778,7.0
59.3504,3.0
59.4231,4.0
59.4957,7.0
59.5683,3.0
59.641,5.0
59.7136,7.0
59.7863,3.0
59.859,6.0
59.9317,4.0
60.0044,6.0
60.0771,4.0
60.1498,3.0
60.2225,4.0
60.2952,4.0
60.368,6.0
60.4407,6.0
60.5135,4.0
60.5862,7.0
60.659,6.0
60.7318,6.0
60.8046,4.0
60.8774,6.0
60.9502,2.0
61.023,6.0
61.0958,9.0
61.1686,10.0
61.2415,4.0
61.3143,5.0
61.3872,5.0
61.4601,5.0
61.5329,5.0
61.6058,4.0
61.6787,1.0
61.7516,7.0
61.8245,5.0
61.8974,5.0
61.9704,6.0
62.0433,7.0
62.1163,11.0
62.1892,12.0
62.2622,10.0
62.3352,4.0
62.4081,5.0
62.4811,6.0
62.5541,6.0
62.6272,4.0
62.7002,1.0
62.7732,7.0
62.8462,3.0
62.9193,5.0
62.9923,6.0
63.0654,5.0
63.1385,5.0
63.2116,4.0
63.2847,6.0
63.3578,3.0
63.4309,4.0
63.504,6.0
63.5771,3.0
63.6503,4.0
63.7234,6.0
63.7966,4.0
63.8698,6.0
63.943,2.0
64.0161,5.0
64.0893,5.0
64.1625,6.0
64.2358,6.0
64.309,9.0
64.3822,13.0
64.4555,9.0
64.5287,20.0
64.602,25.0
64.6753,26.0
64.7486,23.0
64.8219,21.0
64.8952,18.0
64.9685,11.0
65.0418,6.0
65.1151,6.0
65.1885,9.0
65.2619,6.0
65.3352,4.0
65.4086,6.0
65.482,2.0
65.5554,4.0
65.6288,4.0
65.7022,3.0
65.7756,1.0
65.8491,4.0
65.9225,9.0
65.996,6.0
66.0694,6.0
66.1429,5.0
66.2164,7.0
66.2899,6.0
66.3634,6.0
66.4369,3.0
66.5104,5.0
66.584,6.0
66.6575,5.0
66.7311,2.0
66.8047,4.0
66.8782,4.0
66.9518,2.0
67.0254,3.0
67.099,5.0
67.1727,4.0
67.2463,8.0
67.3199,7.0
67.3936,8.0
67.4673,3.0
67.5409,8.0
67.6146,6.0
67.6883,6.0
67.762,6.0
67.8357,3.0
67.9095,7.0
67.9832,6.0
68.057,7.0
68.1307,7.0
68.2045,10.0
68.2783,5.0
68.3521,7.0
68.4259,8.0
68.4997,7.0
68.5735,4.0
68.6473,4.0
68.7212,10.0
68.7951,5.0
68.8689,11.0
68.9428,11.0
69.0167,21.0
69.0906,30.0
69.1645,49.0
69.2384,40.0
69.3124,28.0
69.3863,21.0
69.4603,18.0
69.5343,14.0
69.6082,7.0
69.6822,8.0
69.7562,5.0
69.8303,6.0
69.9043,5.0
69.9783,6.0
70.0524,9.0
70.1264,6.0
70.2005,5.0
70.2746,7.0
70.3487,4.0
70.4228,8.0
70.4969,7.0
70.5711,4.0
70.6452,4.0
70.7194,6.0
70.7935,13.0
70.8677,12.0
70.9419,10.0
71.0161,7.0
71.0903,8.0
71.1646,8.0
71.2388,2.0
71.313,3.0
71.3873,8.0
71.4616,7.0
71.5359,13.0
71.6102,8.0
71.6845,11.0
71.7588,11.0
71.8331,8.0
71.9075,6.0
71.9818,5.0
72.0562,6.0
72.1306,5.0
72.205,6.0
72.2794,3.0
72.3538,6.0
72.4283,6.0
72.5027,6.0
72.5772,5.0
72.6516,6.0
72.7261,7.0
72.8006,6.0
72.8751,3.0
72.9497,7.0
73.0242,3.0
73.0987,10.0
73.1733,5.0
73.2479,11.0
73.3224,6.0
73.397,6.0
73.4717,2.0
73.5463,5.0
73.6209,5.0
73.6956,4.0
73.7702,11.0
73.8449,1.0
73.9196,9.0
73.9943,7.0
74.069,7.0
74.1437,9.0
74.2185,6.0
74.2932,11.0
74.368,4.0
74.4428,6.0
74.5176,6.0
74.5924,2.0
74.6672,4.0
74.742,7.0
74.8169,9.0
74.8917,7.0
74.9666,5.0
75.0415,6.0
75.1164,10.0
75.1913,8.0
75.2662,11.0
75.3412,5.0
75.4161,7.0
75.4911,8.0
75.5661,9.0
75.6411,7.0
75.7161,4.0
75.7911,8.0
75.8661,9.0
75.9412,14.0
76.0162,4.0
76.0913,6.0
76.1664,13.0
76.2415,14.0
76.3166,25.0
76.3918,44.0
76.4669,117.0
76.5421,156.0
76.6172,137.0
76.6924,86.0
76.7676,97.0
76.8428,64.0
76.9181,30.0
76.9933,22.0
77.0686,16.0
77.1439,9.0
77.2192,5.0
77.2945,8.0
77.3698,11.0
77.4451,6.0
77.5205,12.0
77.5958,10.0
77.6712,13.0
77.7466,12.0
77.822,10.0
77.8974,10.0
77.9728,15.0
78.0483,11.0
78.1238,8.0
78.1992,6.0
78.2747,5.0
78.3502,5.0
78.4258,5.0
78.5013,6.0
78.5769,8.0
78.6524,12.0
78.728,9.0
78.8036,11.0
78.8792,8.0
78.9549,9.0
79.0305,12.0
79.1062,7.0
79.1818,6.0
79.2575,3.0
79.3332,11.0
79.409,4.0
79.4847,8.0
79.5604,8.0
79.6362,10.0
79.712,7.0
79.7878,8.0
79.8636,10.0
79.9394,8.0
80.0153,6.0
80.0912,7.0
80.167,9.0
80.2429,9.0
80.3188,4.0
80.3948,11.0
80.4707,8.0
80.5467,4.0
80.6226,6.0
80.6986,5.0
80.7746,10.0
80.8507,4.0
80.9267,6.0
81.0028,3.0
81.0788,2.0
81.1549,4.0
81.231,4.0
81.3071,5.0
81.3833,3.0
81.4594,7.0
81.5356,3.0
81.6118,7.0
81.688,7.0
81.7642,3.0
81.8404,3.0
81.9167,9.0
81.993,9.0
82.0693,6.0
82.1456,2.0
82.2219,6.0
82.2982,5.0
82.3746,7.0
82.4509,7.0
82.5273,4.0
82.6037,7.0
82.6802,7.0
82.7566,6.0
82.8331,6.0
82.9095,8.0
82.986,8.0
83.0625,5.0
83.1391,1.0
83.2156,5.0
83.2922,5.0
83.3687,6.0
83.4453,9.0
83.522,1.0
83.5986,6.0
83.6241,6.0