File: data/xrd/xy/Acetamidinium_Bromide.lbl_rescaled.xy
# Processed xy data with Haverford two-theta converted to LBL scale
two_theta,intensity
5.81234,3.0
5.8821,8.0
5.95186,7.0
6.02163,5.0
6.0914,7.0
6.16116,5.0
6.23093,6.0
6.3007,7.0
6.37046,7.0
6.44023,4.0
6.51,12.0
6.57977,4.0
6.64954,7.0
6.71931,10.0
6.78908,6.0
6.85886,4.0
6.92863,2.0
6.9984,6.0
7.06818,2.0
7.13795,6.0
7.20773,4.0
7.27751,7.0
7.34728,7.0
7.41706,7.0
7.48684,3.0
7.55662,8.0
7.6264,5.0
7.69618,7.0
7.76596,8.0
7.83574,4.0
7.90553,4.0
7.97531,5.0
8.0451,6.0
8.11488,6.0
8.18467,5.0
8.25445,6.0
8.32424,2.0
8.39403,3.0
8.46382,5.0
8.53361,9.0
8.6034,7.0
8.67319,7.0
8.74299,6.0
8.81278,3.0
8.88257,5.0
8.95237,8.0
9.02217,5.0
9.09196,5.0
9.16176,3.0
9.23156,7.0
9.30136,6.0
9.37116,5.0
9.44096,3.0
9.51076,5.0
9.58057,6.0
9.65037,7.0
9.72018,4.0
9.78998,6.0
9.85979,3.0
9.9296,3.0
9.99941,6.0
10.0692,4.0
10.139,5.0
10.2088,8.0
10.2787,6.0
10.3485,5.0
10.4183,4.0
10.4881,5.0
10.5579,5.0
10.6277,4.0
10.6976,7.0
10.7674,7.0
10.8372,4.0
10.907,4.0
10.9768,4.0
11.0467,5.0
11.1165,5.0
11.1863,7.0
11.2561,9.0
11.326,4.0
11.3958,5.0
11.4656,11.0
11.5355,5.0
11.6053,3.0
11.6751,3.0
11.745,4.0
11.8148,3.0
11.8846,5.0
11.9545,3.0
12.0243,2.0
12.0942,5.0
12.164,6.0
12.2338,3.0
12.3037,5.0
12.3735,4.0
12.4434,7.0
12.5132,4.0
12.5831,8.0
12.6529,5.0
12.7228,4.0
12.7926,5.0
12.8625,4.0
12.9324,6.0
13.0022,6.0
13.0721,3.0
13.1419,6.0
13.2118,5.0
13.2817,6.0
13.3515,4.0
13.4214,5.0
13.4912,4.0
13.5611,6.0
13.631,4.0
13.7009,5.0
13.7707,7.0
13.8406,7.0
13.9105,4.0
13.9803,5.0
14.0502,3.0
14.1201,3.0
14.19,7.0
14.2599,6.0
14.3297,3.0
14.3996,5.0
14.4695,2.0
14.5394,4.0
14.6093,6.0
14.6792,6.0
14.7491,7.0
14.819,6.0
14.8889,3.0
14.9588,3.0
15.0287,4.0
15.0985,4.0
15.1684,6.0
15.2384,4.0
15.3083,3.0
15.3782,2.0
15.4481,9.0
15.518,9.0
15.5879,11.0
15.6578,7.0
15.7277,9.0
15.7976,10.0
15.8675,24.0
15.9374,19.0
16.0074,14.0
16.0773,8.0
16.1472,4.0
16.2171,8.0
16.2871,9.0
16.357,14.0
16.4269,15.0
16.4968,30.0
16.5668,39.0
16.6367,59.0
16.7066,29.0
16.7766,9.0
16.8465,7.0
16.9165,5.0
16.9864,6.0
17.0563,1.0
17.1263,3.0
17.1962,9.0
17.2662,5.0
17.3361,1.0
17.4061,2.0
17.476,7.0
17.546,4.0
17.6159,5.0
17.6859,7.0
17.7559,8.0
17.8258,7.0
17.8958,4.0
17.9658,4.0
18.0357,1.0
18.1057,8.0
18.1757,7.0
18.2456,9.0
18.3156,7.0
18.3856,9.0
18.4556,35.0
18.5255,46.0
18.5955,10.0
18.6655,6.0
18.7355,8.0
18.8055,3.0
18.8755,6.0
18.9455,5.0
19.0155,5.0
19.0854,6.0
19.1554,6.0
19.2254,5.0
19.2954,4.0
19.3654,3.0
19.4354,3.0
19.5055,8.0
19.5755,6.0
19.6455,11.0
19.7155,9.0
19.7855,5.0
19.8555,3.0
19.9255,7.0
19.9956,6.0
20.0656,4.0
20.1356,4.0
20.2056,2.0
20.2757,6.0
20.3457,1.0
20.4157,4.0
20.4858,6.0
20.5558,4.0
20.6258,7.0
20.6959,8.0
20.7659,8.0
20.836,8.0
20.906,12.0
20.9761,19.0
21.0461,44.0
21.1162,76.0
21.1862,31.0
21.2563,9.0
21.3263,7.0
21.3964,5.0
21.4665,10.0
21.5365,3.0
21.6066,4.0
21.6767,5.0
21.7467,1.0
21.8168,7.0
21.8869,8.0
21.957,5.0
22.027,4.0
22.0971,5.0
22.1672,10.0
22.2373,6.0
22.3074,8.0
22.3775,5.0
22.4476,6.0
22.5177,4.0
22.5878,11.0
22.6579,12.0
22.728,34.0
22.7981,69.0
22.8682,95.0
22.9383,77.0
23.0084,49.0
23.0785,38.0
23.1487,41.0
23.2188,28.0
23.2889,14.0
23.359,6.0
23.4292,6.0
23.4993,7.0
23.5694,3.0
23.6395,8.0
23.7097,3.0
23.7798,6.0
23.85,0.0
23.9201,5.0
23.9903,2.0
24.0604,3.0
24.1306,8.0
24.2007,6.0
24.2709,1.0
24.341,6.0
24.4112,5.0
24.4814,5.0
24.5515,5.0
24.6217,3.0
24.6919,6.0
24.762,7.0
24.8322,10.0
24.9024,8.0
24.9726,3.0
25.0428,3.0
25.1129,12.0
25.1831,2.0
25.2533,4.0
25.3235,11.0
25.3937,8.0
25.4639,16.0
25.5341,19.0
25.6043,23.0
25.6745,19.0
25.7447,26.0
25.815,237.0
25.8852,729.0
25.9554,599.0
26.0256,150.0
26.0958,30.0
26.1661,13.0
26.2363,14.0
26.3065,10.0
26.3768,5.0
26.447,14.0
26.5172,10.0
26.5875,13.0
26.6577,14.0
26.728,17.0
26.7982,40.0
26.8685,43.0
26.9387,23.0
27.009,12.0
27.0793,6.0
27.1495,10.0
27.2198,3.0
27.2901,3.0
27.3603,5.0
27.4306,9.0
27.5009,10.0
27.5712,10.0
27.6415,16.0
27.7117,29.0
27.782,53.0
27.8523,46.0
27.9226,38.0
27.9929,8.0
28.0632,15.0
28.1335,6.0
28.2038,10.0
28.2742,6.0
28.3445,10.0
28.4148,8.0
28.4851,14.0
28.5554,6.0
28.6258,7.0
28.6961,10.0
28.7664,12.0
28.8368,8.0
28.9071,11.0
28.9774,17.0
29.0478,23.0
29.1181,26.0
29.1885,58.0
29.2588,231.0
29.3292,360.0
29.3995,236.0
29.4699,116.0
29.5403,51.0
29.6106,27.0
29.681,20.0
29.7514,11.0
29.8218,15.0
29.8921,3.0
29.9625,12.0
30.0329,5.0
30.1033,6.0
30.1737,6.0
30.2441,13.0
30.3145,8.0
30.3849,7.0
30.4553,9.0
30.5257,8.0
30.5961,6.0
30.6666,1.0
30.737,7.0
30.8074,11.0
30.8778,7.0
30.9482,6.0
31.0187,5.0
31.0891,12.0
31.1596,3.0
31.23,9.0
31.3004,8.0
31.3709,8.0
31.4413,7.0
31.5118,11.0
31.5823,7.0
31.6527,8.0
31.7232,16.0
31.7937,12.0
31.8641,29.0
31.9346,78.0
32.0051,543.0
32.0756,664.0
32.1461,324.0
32.2166,80.0
32.287,30.0
32.3575,17.0
32.428,6.0
32.4985,13.0
32.5691,9.0
32.6396,9.0
32.7101,12.0
32.7806,14.0
32.8511,21.0
32.9216,30.0
32.9922,33.0
33.0627,29.0
33.1332,14.0
33.2038,10.0
33.2743,14.0
33.3449,14.0
33.4154,26.0
33.486,53.0
33.5565,49.0
33.6271,33.0
33.6977,17.0
33.7682,14.0
33.8388,10.0
33.9094,17.0
33.9799,44.0
34.0505,75.0
34.1211,61.0
34.1917,31.0
34.2623,9.0
34.3329,10.0
34.4035,9.0
34.4741,10.0
34.5447,12.0
34.6153,6.0
34.6859,2.0
34.7566,7.0
34.8272,11.0
34.8978,7.0
34.9684,9.0
35.0391,15.0
35.1097,30.0
35.1804,31.0
35.251,36.0
35.3217,30.0
35.3923,10.0
35.463,8.0
35.5336,6.0
35.6043,8.0
35.675,9.0
35.7457,10.0
35.8163,13.0
35.887,6.0
35.9577,6.0
36.0284,5.0
36.0991,10.0
36.1698,15.0
36.2405,17.0
36.3112,22.0
36.3819,27.0
36.4526,27.0
36.5233,28.0
36.594,14.0
36.6648,14.0
36.7355,12.0
36.8062,23.0
36.877,28.0
36.9477,17.0
37.0185,17.0
37.0892,28.0
37.16,30.0
37.2307,40.0
37.3015,149.0
37.3723,454.0
37.443,543.0
37.5138,314.0
37.5846,102.0
37.6554,29.0
37.7262,25.0
37.7969,38.0
37.8677,48.0
37.9385,55.0
38.0094,44.0
38.0802,31.0
38.151,10.0
38.2218,11.0
38.2926,14.0
38.3634,19.0
38.4343,16.0
38.5051,11.0
38.5759,6.0
38.6468,12.0
38.7176,14.0
38.7885,12.0
38.8593,14.0
38.9302,20.0
39.0011,14.0
39.0719,13.0
39.1428,14.0
39.2137,10.0
39.2846,18.0
39.3555,11.0
39.4264,9.0
39.4972,11.0
39.5681,13.0
39.6391,32.0
39.71,57.0
39.7809,53.0
39.8518,35.0
39.9227,28.0
39.9936,40.0
40.0646,43.0
40.1355,27.0
40.2065,17.0
40.2774,10.0
40.3484,10.0
40.4193,11.0
40.4903,13.0
40.5612,6.0
40.6322,9.0
40.7032,15.0
40.7742,9.0
40.8451,8.0
40.9161,5.0
40.9871,11.0
41.0581,13.0
41.1291,8.0
41.2001,13.0
41.2711,9.0
41.3421,11.0
41.4132,33.0
41.4842,70.0
41.5552,61.0
41.6263,37.0
41.6973,30.0
41.7683,54.0
41.8394,61.0
41.9104,29.0
41.9815,14.0
42.0526,8.0
42.1236,14.0
42.1947,11.0
42.2658,5.0
42.3369,7.0
42.408,8.0
42.4791,6.0
42.5502,14.0
42.6213,20.0
42.6924,17.0
42.7635,23.0
42.8346,13.0
42.9057,20.0
42.9768,15.0
43.048,18.0
43.1191,26.0
43.1903,32.0
43.2614,44.0
43.3326,37.0
43.4037,21.0
43.4749,14.0
43.5461,7.0
43.6172,9.0
43.6884,6.0
43.7596,6.0
43.8308,7.0
43.902,9.0
43.9732,8.0
44.0444,4.0
44.1156,8.0
44.1868,6.0
44.258,8.0
44.3292,7.0
44.4005,11.0
44.4717,11.0
44.543,9.0
44.6142,7.0
44.6855,6.0
44.7567,15.0
44.828,11.0
44.8992,13.0
44.9705,13.0
45.0418,15.0
45.1131,16.0
45.1844,14.0
45.2557,12.0
45.327,8.0
45.3983,6.0
45.4696,7.0
45.5409,14.0
45.6122,6.0
45.6835,7.0
45.7549,7.0
45.8262,9.0
45.8975,8.0
45.9689,11.0
46.0403,11.0
46.1116,7.0
46.183,5.0
46.2543,7.0
46.3257,6.0
46.3971,15.0
46.4685,21.0
46.5399,18.0
46.6113,13.0
46.6827,11.0
46.7541,10.0
46.8255,11.0
46.8969,8.0
46.9684,10.0
47.0398,6.0
47.1112,5.0
47.1827,6.0
47.2541,7.0
47.3256,6.0
47.3971,7.0
47.4685,6.0
47.54,6.0
47.6115,11.0
47.683,7.0
47.7544,6.0
47.8259,8.0
47.8974,6.0
47.969,10.0
48.0405,8.0
48.112,3.0
48.1835,7.0
48.255,8.0
48.3266,4.0
48.3981,9.0
48.4697,8.0
48.5412,13.0
48.6128,7.0
48.6844,10.0
48.7559,9.0
48.8275,9.0
48.8991,11.0
48.9707,6.0
49.0423,12.0
49.1139,10.0
49.1855,9.0
49.2571,9.0
49.3287,13.0
49.4004,20.0
49.472,27.0
49.5436,23.0
49.6153,24.0
49.6869,19.0
49.7586,13.0
49.8303,5.0
49.9019,6.0
49.9736,7.0
50.0453,9.0
50.117,11.0
50.1887,15.0
50.2604,17.0
50.3321,11.0
50.4038,10.0
50.4755,3.0
50.5473,5.0
50.619,8.0
50.6907,7.0
50.7625,8.0
50.8342,13.0
50.906,13.0
50.9778,11.0
51.0495,23.0
51.1213,19.0
51.1931,12.0
51.2649,18.0
51.3367,5.0
51.4085,10.0
51.4803,7.0
51.5521,11.0
51.624,9.0
51.6958,4.0
51.7676,8.0
51.8395,10.0
51.9113,10.0
51.9832,4.0
52.0551,8.0
52.1269,11.0
52.1988,9.0
52.2707,8.0
52.3426,9.0
52.4145,7.0
52.4864,9.0
52.5583,13.0
52.6302,12.0
52.7021,12.0
52.7741,16.0
52.846,23.0
52.918,27.0
52.9899,30.0
53.0619,26.0
53.1338,25.0
53.2058,27.0
53.2778,26.0
53.3498,18.0
53.4218,16.0
53.4938,11.0
53.5658,7.0
53.6378,14.0
53.7098,11.0
53.7818,10.0
53.8539,12.0
53.9259,10.0
53.998,20.0
54.07,24.0
54.1421,37.0
54.2142,43.0
54.2862,26.0
54.3583,24.0
54.4304,15.0
54.5025,8.0
54.5746,10.0
54.6467,9.0
54.7189,9.0
54.791,10.0
54.8631,9.0
54.9353,16.0
55.0074,21.0
55.0796,15.0
55.1518,21.0
55.2239,28.0
55.2961,28.0
55.3683,17.0
55.4405,16.0
55.5127,24.0
55.5849,22.0
55.6571,31.0
55.7293,23.0
55.8016,20.0
55.8738,13.0
55.9461,14.0
56.0183,15.0
56.0906,13.0
56.1628,10.0
56.2351,10.0
56.3074,11.0
56.3797,13.0
56.452,15.0
56.5243,13.0
56.5966,10.0
56.6689,12.0
56.7413,12.0
56.8136,18.0
56.886,16.0
56.9583,18.0
57.0307,24.0
57.103,27.0
57.1754,23.0
57.2478,32.0
57.3202,38.0
57.3926,51.0
57.465,51.0
57.5374,45.0
57.6098,43.0
57.6823,25.0
57.7547,14.0
57.8272,14.0
57.8996,13.0
57.9721,11.0
58.0446,15.0
58.117,15.0
58.1895,11.0
58.262,13.0
58.3345,14.0
58.407,14.0
58.4796,16.0
58.5521,14.0
58.6246,15.0
58.6972,19.0
58.7697,20.0
58.8423,19.0
58.9148,22.0
58.9874,17.0
59.06,17.0
59.1326,16.0
59.2052,18.0
59.2778,15.0
59.3504,12.0
59.4231,14.0
59.4957,8.0
59.5683,14.0
59.641,15.0
59.7136,9.0
59.7863,14.0
59.859,15.0
59.9317,14.0
60.0044,16.0
60.0771,16.0
60.1498,18.0
60.2225,14.0
60.2952,16.0
60.368,17.0
60.4407,19.0
60.5135,13.0
60.5862,23.0
60.659,15.0
60.7318,20.0
60.8046,12.0
60.8774,21.0
60.9502,18.0
61.023,11.0
61.0958,15.0
61.1686,13.0
61.2415,15.0
61.3143,15.0
61.3872,11.0
61.4601,14.0
61.5329,9.0
61.6058,7.0
61.6787,13.0
61.7516,10.0
61.8245,11.0
61.8974,13.0
61.9704,9.0
62.0433,15.0
62.1163,11.0
62.1892,12.0
62.2622,18.0
62.3352,14.0
62.4081,14.0
62.4811,21.0
62.5541,7.0
62.6272,15.0
62.7002,12.0
62.7732,14.0
62.8462,14.0
62.9193,13.0
62.9923,11.0
63.0654,13.0
63.1385,26.0
63.2116,21.0
63.2847,13.0
63.3578,18.0
63.4309,16.0
63.504,13.0
63.5771,15.0
63.6503,12.0
63.7234,13.0
63.7966,19.0
63.8698,34.0
63.943,37.0
64.0161,29.0
64.0893,23.0
64.1625,23.0
64.2358,13.0
64.309,8.0
64.3822,15.0
64.4555,15.0
64.5287,10.0
64.602,14.0
64.6753,15.0
64.7486,16.0
64.8219,20.0
64.8952,27.0
64.9685,20.0
65.0418,19.0
65.1151,24.0
65.1885,24.0
65.2619,22.0
65.3352,16.0
65.4086,14.0
65.482,18.0
65.5554,17.0
65.6288,17.0
65.7022,12.0
65.7756,12.0
65.8491,12.0
65.9225,12.0
65.996,9.0
66.0694,9.0
66.1429,6.0
66.2164,12.0
66.2899,14.0
66.3634,11.0
66.4369,17.0
66.5104,12.0
66.584,9.0
66.6575,17.0
66.7311,8.0
66.8047,9.0
66.8782,13.0
66.9518,21.0
67.0254,23.0
67.099,20.0
67.1727,16.0
67.2463,19.0
67.3199,15.0
67.3936,19.0
67.4673,18.0
67.5409,13.0
67.6146,14.0
67.6883,10.0
67.762,14.0
67.8357,11.0
67.9095,9.0
67.9832,11.0
68.057,8.0
68.1307,9.0
68.2045,10.0
68.2783,13.0
68.3521,9.0
68.4259,10.0
68.4997,15.0
68.5735,8.0
68.6473,8.0
68.7212,15.0
68.7951,11.0
68.8689,15.0
68.9428,10.0
69.0167,10.0
69.0906,8.0
69.1645,15.0
69.2384,13.0
69.3124,11.0
69.3863,13.0
69.4603,18.0
69.5343,6.0
69.6082,12.0
69.6822,11.0
69.7562,9.0
69.8303,11.0
69.9043,12.0
69.9783,28.0
70.0524,25.0
70.1264,19.0
70.2005,17.0
70.2746,18.0
70.3487,7.0
70.4228,12.0
70.4969,16.0
70.5711,10.0
70.6452,9.0
70.7194,9.0
70.7935,13.0
70.8677,14.0
70.9419,16.0
71.0161,12.0
71.0903,13.0
71.1646,10.0
71.2388,13.0
71.313,14.0
71.3873,14.0
71.4616,13.0
71.5359,11.0
71.6102,16.0
71.6845,13.0
71.7588,12.0
71.8331,14.0
71.9075,12.0
71.9818,12.0
72.0562,10.0
72.1306,7.0
72.205,12.0
72.2794,13.0
72.3538,19.0
72.4283,17.0
72.5027,14.0
72.5772,14.0
72.6516,5.0
72.7261,16.0
72.8006,11.0
72.8751,13.0
72.9497,11.0
73.0242,9.0
73.0987,10.0
73.1733,7.0
73.2479,10.0
73.3224,8.0
73.397,13.0
73.4717,14.0
73.5463,15.0
73.6209,12.0
73.6956,8.0
73.7702,11.0
73.8449,10.0
73.9196,9.0
73.9943,12.0
74.069,8.0
74.1437,12.0
74.2185,14.0
74.2932,10.0
74.368,13.0
74.4428,12.0
74.5176,17.0
74.5924,15.0
74.6672,24.0
74.742,17.0
74.8169,17.0
74.8917,14.0
74.9666,9.0
75.0415,13.0
75.1164,9.0
75.1913,15.0
75.2662,13.0
75.3412,13.0
75.4161,14.0
75.4911,11.0
75.5661,7.0
75.6411,11.0
75.7161,11.0
75.7911,15.0
75.8661,10.0
75.9412,14.0
76.0162,8.0
76.0913,11.0
76.1664,19.0
76.2415,12.0
76.3166,15.0
76.3918,15.0
76.4669,16.0
76.5421,12.0
76.6172,14.0
76.6924,21.0
76.7676,15.0
76.8428,9.0
76.9181,18.0
76.9933,10.0
77.0686,12.0
77.1439,15.0
77.2192,10.0
77.2945,8.0
77.3698,7.0
77.4451,12.0
77.5205,5.0
77.5958,15.0
77.6712,7.0
77.7466,15.0
77.822,7.0
77.8974,13.0
77.9728,8.0
78.0483,11.0
78.1238,13.0
78.1992,12.0
78.2747,4.0
78.3502,22.0
78.4258,11.0
78.5013,8.0
78.5769,7.0
78.6524,16.0
78.728,9.0
78.8036,15.0
78.8792,16.0
78.9549,10.0
79.0305,7.0
79.1062,11.0
79.1818,7.0
79.2575,12.0
79.3332,12.0
79.409,12.0
79.4847,17.0
79.5604,20.0
79.6362,35.0
79.712,20.0
79.7878,27.0
79.8636,22.0
79.9394,17.0
80.0153,15.0
80.0912,16.0
80.167,11.0
80.2429,11.0
80.3188,5.0
80.3948,6.0
80.4707,7.0
80.5467,3.0
80.6226,11.0
80.6986,14.0
80.7746,13.0
80.8507,9.0
80.9267,10.0
81.0028,10.0
81.0788,8.0
81.1549,7.0
81.231,10.0
81.3071,14.0
81.3833,17.0
81.4594,9.0
81.5356,15.0
81.6118,11.0
81.688,19.0
81.7642,17.0
81.8404,7.0
81.9167,10.0
81.993,15.0
82.0693,17.0
82.1456,17.0
82.2219,16.0
82.2982,15.0
82.3746,10.0
82.4509,12.0
82.5273,9.0
82.6037,9.0
82.6802,14.0
82.7566,10.0
82.8331,9.0
82.9095,8.0
82.986,6.0
83.0625,14.0
83.1391,5.0
83.2156,9.0
83.2922,10.0
83.3687,12.0
83.4453,13.0
83.522,15.0
83.5986,12.0
83.6241,7.0