File: data/xrd/xy/Dabco_Iodide.lbl_rescaled.xy
# Processed xy data with Haverford two-theta converted to LBL scale
two_theta,intensity
5.81234,4.0
5.8821,4.0
5.95186,5.0
6.02163,7.0
6.0914,9.0
6.16116,7.0
6.23093,7.0
6.3007,5.0
6.37046,7.0
6.44023,5.0
6.51,6.0
6.57977,5.0
6.64954,5.0
6.71931,6.0
6.78908,6.0
6.85886,5.0
6.92863,8.0
6.9984,6.0
7.06818,7.0
7.13795,6.0
7.20773,6.0
7.27751,6.0
7.34728,7.0
7.41706,4.0
7.48684,8.0
7.55662,4.0
7.6264,9.0
7.69618,6.0
7.76596,7.0
7.83574,5.0
7.90553,3.0
7.97531,3.0
8.0451,2.0
8.11488,3.0
8.18467,7.0
8.25445,3.0
8.32424,8.0
8.39403,3.0
8.46382,6.0
8.53361,4.0
8.6034,5.0
8.67319,5.0
8.74299,6.0
8.81278,4.0
8.88257,4.0
8.95237,5.0
9.02217,4.0
9.09196,12.0
9.16176,5.0
9.23156,3.0
9.30136,5.0
9.37116,3.0
9.44096,5.0
9.51076,5.0
9.58057,8.0
9.65037,0.0
9.72018,6.0
9.78998,6.0
9.85979,5.0
9.9296,7.0
9.99941,4.0
10.0692,6.0
10.139,4.0
10.2088,7.0
10.2787,4.0
10.3485,5.0
10.4183,6.0
10.4881,3.0
10.5579,4.0
10.6277,4.0
10.6976,5.0
10.7674,8.0
10.8372,3.0
10.907,5.0
10.9768,6.0
11.0467,3.0
11.1165,10.0
11.1863,6.0
11.2561,4.0
11.326,7.0
11.3958,5.0
11.4656,3.0
11.5355,5.0
11.6053,6.0
11.6751,5.0
11.745,4.0
11.8148,10.0
11.8846,3.0
11.9545,5.0
12.0243,3.0
12.0942,6.0
12.164,6.0
12.2338,8.0
12.3037,8.0
12.3735,4.0
12.4434,3.0
12.5132,4.0
12.5831,8.0
12.6529,4.0
12.7228,0.0
12.7926,2.0
12.8625,4.0
12.9324,6.0
13.0022,7.0
13.0721,8.0
13.1419,2.0
13.2118,8.0
13.2817,6.0
13.3515,4.0
13.4214,8.0
13.4912,7.0
13.5611,5.0
13.631,5.0
13.7009,4.0
13.7707,6.0
13.8406,7.0
13.9105,6.0
13.9803,7.0
14.0502,3.0
14.1201,1.0
14.19,6.0
14.2599,7.0
14.3297,4.0
14.3996,2.0
14.4695,6.0
14.5394,7.0
14.6093,7.0
14.6792,6.0
14.7491,5.0
14.819,3.0
14.8889,8.0
14.9588,6.0
15.0287,6.0
15.0985,5.0
15.1684,8.0
15.2384,4.0
15.3083,4.0
15.3782,9.0
15.4481,11.0
15.518,8.0
15.5879,8.0
15.6578,3.0
15.7277,10.0
15.7976,4.0
15.8675,4.0
15.9374,6.0
16.0074,5.0
16.0773,7.0
16.1472,8.0
16.2171,5.0
16.2871,6.0
16.357,6.0
16.4269,9.0
16.4968,4.0
16.5668,5.0
16.6367,4.0
16.7066,3.0
16.7766,4.0
16.8465,4.0
16.9165,6.0
16.9864,5.0
17.0563,7.0
17.1263,2.0
17.1962,3.0
17.2662,8.0
17.3361,8.0
17.4061,15.0
17.476,20.0
17.546,24.0
17.6159,22.0
17.6859,50.0
17.7559,80.0
17.8258,100.0
17.8958,49.0
17.9658,14.0
18.0357,21.0
18.1057,31.0
18.1757,41.0
18.2456,30.0
18.3156,13.0
18.3856,7.0
18.4556,7.0
18.5255,5.0
18.5955,7.0
18.6655,3.0
18.7355,4.0
18.8055,5.0
18.8755,8.0
18.9455,4.0
19.0155,3.0
19.0854,6.0
19.1554,6.0
19.2254,5.0
19.2954,6.0
19.3654,6.0
19.4354,5.0
19.5055,0.0
19.5755,3.0
19.6455,6.0
19.7155,1.0
19.7855,11.0
19.8555,8.0
19.9255,4.0
19.9956,4.0
20.0656,6.0
20.1356,1.0
20.2056,4.0
20.2757,7.0
20.3457,4.0
20.4157,3.0
20.4858,3.0
20.5558,9.0
20.6258,5.0
20.6959,6.0
20.7659,5.0
20.836,7.0
20.906,10.0
20.9761,5.0
21.0461,3.0
21.1162,6.0
21.1862,4.0
21.2563,6.0
21.3263,6.0
21.3964,1.0
21.4665,10.0
21.5365,3.0
21.6066,4.0
21.6767,3.0
21.7467,6.0
21.8168,7.0
21.8869,7.0
21.957,7.0
22.027,6.0
22.0971,3.0
22.1672,4.0
22.2373,5.0
22.3074,7.0
22.3775,5.0
22.4476,8.0
22.5177,3.0
22.5878,5.0
22.6579,4.0
22.728,8.0
22.7981,8.0
22.8682,6.0
22.9383,8.0
23.0084,6.0
23.0785,12.0
23.1487,13.0
23.2188,16.0
23.2889,25.0
23.359,55.0
23.4292,76.0
23.4993,168.0
23.5694,373.0
23.6395,437.0
23.7097,214.0
23.7798,123.0
23.85,212.0
23.9201,226.0
23.9903,115.0
24.0604,21.0
24.1306,6.0
24.2007,10.0
24.2709,12.0
24.341,9.0
24.4112,9.0
24.4814,9.0
24.5515,9.0
24.6217,9.0
24.6919,8.0
24.762,3.0
24.8322,9.0
24.9024,9.0
24.9726,11.0
25.0428,6.0
25.1129,11.0
25.1831,6.0
25.2533,8.0
25.3235,7.0
25.3937,6.0
25.4639,6.0
25.5341,8.0
25.6043,9.0
25.6745,12.0
25.7447,5.0
25.815,5.0
25.8852,6.0
25.9554,7.0
26.0256,11.0
26.0958,6.0
26.1661,10.0
26.2363,11.0
26.3065,16.0
26.3768,28.0
26.447,48.0
26.5172,110.0
26.5875,199.0
26.6577,187.0
26.728,64.0
26.7982,17.0
26.8685,16.0
26.9387,14.0
27.009,19.0
27.0793,26.0
27.1495,43.0
27.2198,68.0
27.2901,175.0
27.3603,314.0
27.4306,279.0
27.5009,98.0
27.5712,15.0
27.6415,20.0
27.7117,13.0
27.782,20.0
27.8523,4.0
27.9226,6.0
27.9929,4.0
28.0632,13.0
28.1335,8.0
28.2038,8.0
28.2742,8.0
28.3445,9.0
28.4148,5.0
28.4851,7.0
28.5554,6.0
28.6258,8.0
28.6961,9.0
28.7664,11.0
28.8368,9.0
28.9071,10.0
28.9774,4.0
29.0478,5.0
29.1181,5.0
29.1885,5.0
29.2588,2.0
29.3292,6.0
29.3995,9.0
29.4699,6.0
29.5403,4.0
29.6106,6.0
29.681,6.0
29.7514,6.0
29.8218,5.0
29.8921,10.0
29.9625,7.0
30.0329,8.0
30.1033,5.0
30.1737,4.0
30.2441,4.0
30.3145,3.0
30.3849,6.0
30.4553,6.0
30.5257,6.0
30.5961,9.0
30.6666,11.0
30.737,4.0
30.8074,11.0
30.8778,24.0
30.9482,43.0
31.0187,69.0
31.0891,96.0
31.1596,71.0
31.23,63.0
31.3004,74.0
31.3709,40.0
31.4413,17.0
31.5118,11.0
31.5823,9.0
31.6527,8.0
31.7232,12.0
31.7937,11.0
31.8641,9.0
31.9346,11.0
32.0051,14.0
32.0756,21.0
32.1461,39.0
32.2166,37.0
32.287,51.0
32.3575,66.0
32.428,87.0
32.4985,73.0
32.5691,27.0
32.6396,12.0
32.7101,26.0
32.7806,51.0
32.8511,62.0
32.9216,47.0
32.9922,14.0
33.0627,12.0
33.1332,21.0
33.2038,44.0
33.2743,69.0
33.3449,59.0
33.4154,22.0
33.486,10.0
33.5565,11.0
33.6271,9.0
33.6977,8.0
33.7682,8.0
33.8388,5.0
33.9094,9.0
33.9799,6.0
34.0505,6.0
34.1211,7.0
34.1917,3.0
34.2623,10.0
34.3329,5.0
34.4035,6.0
34.4741,6.0
34.5447,3.0
34.6153,11.0
34.6859,4.0
34.7566,6.0
34.8272,6.0
34.8978,7.0
34.9684,9.0
35.0391,8.0
35.1097,9.0
35.1804,10.0
35.251,9.0
35.3217,11.0
35.3923,6.0
35.463,14.0
35.5336,9.0
35.6043,7.0
35.675,7.0
35.7457,15.0
35.8163,19.0
35.887,43.0
35.9577,99.0
36.0284,188.0
36.0991,180.0
36.1698,94.0
36.2405,29.0
36.3112,14.0
36.3819,12.0
36.4526,11.0
36.5233,8.0
36.594,16.0
36.6648,25.0
36.7355,39.0
36.8062,89.0
36.877,97.0
36.9477,74.0
37.0185,32.0
37.0892,10.0
37.16,11.0
37.2307,10.0
37.3015,10.0
37.3723,7.0
37.443,7.0
37.5138,9.0
37.5846,2.0
37.6554,9.0
37.7262,4.0
37.7969,9.0
37.8677,6.0
37.9385,8.0
38.0094,11.0
38.0802,4.0
38.151,5.0
38.2218,6.0
38.2926,8.0
38.3634,11.0
38.4343,5.0
38.5051,7.0
38.5759,8.0
38.6468,12.0
38.7176,14.0
38.7885,11.0
38.8593,9.0
38.9302,6.0
39.0011,5.0
39.0719,11.0
39.1428,15.0
39.2137,28.0
39.2846,66.0
39.3555,87.0
39.4264,88.0
39.4972,81.0
39.5681,89.0
39.6391,38.0
39.71,15.0
39.7809,9.0
39.8518,10.0
39.9227,5.0
39.9936,6.0
40.0646,7.0
40.1355,9.0
40.2065,10.0
40.2774,7.0
40.3484,9.0
40.4193,7.0
40.4903,10.0
40.5612,10.0
40.6322,9.0
40.7032,9.0
40.7742,5.0
40.8451,5.0
40.9161,6.0
40.9871,9.0
41.0581,6.0
41.1291,6.0
41.2001,14.0
41.2711,12.0
41.3421,22.0
41.4132,20.0
41.4842,43.0
41.5552,48.0
41.6263,41.0
41.6973,24.0
41.7683,10.0
41.8394,8.0
41.9104,10.0
41.9815,14.0
42.0526,13.0
42.1236,27.0
42.1947,36.0
42.2658,49.0
42.3369,34.0
42.408,22.0
42.4791,11.0
42.5502,13.0
42.6213,22.0
42.6924,21.0
42.7635,12.0
42.8346,9.0
42.9057,16.0
42.9768,17.0
43.048,32.0
43.1191,53.0
43.1903,44.0
43.2614,33.0
43.3326,15.0
43.4037,10.0
43.4749,14.0
43.5461,18.0
43.6172,29.0
43.6884,29.0
43.7596,18.0
43.8308,11.0
43.902,5.0
43.9732,5.0
44.0444,10.0
44.1156,9.0
44.1868,8.0
44.258,4.0
44.3292,6.0
44.4005,4.0
44.4717,8.0
44.543,8.0
44.6142,8.0
44.6855,8.0
44.7567,12.0
44.828,6.0
44.8992,10.0
44.9705,19.0
45.0418,13.0
45.1131,28.0
45.1844,52.0
45.2557,74.0
45.327,89.0
45.3983,57.0
45.4696,25.0
45.5409,21.0
45.6122,20.0
45.6835,19.0
45.7549,50.0
45.8262,64.0
45.8975,59.0
45.9689,64.0
46.0403,76.0
46.1116,61.0
46.183,42.0
46.2543,22.0
46.3257,12.0
46.3971,17.0
46.4685,27.0
46.5399,50.0
46.6113,46.0
46.6827,26.0
46.7541,15.0
46.8255,14.0
46.8969,8.0
46.9684,15.0
47.0398,9.0
47.1112,11.0
47.1827,7.0
47.2541,12.0
47.3256,15.0
47.3971,39.0
47.4685,46.0
47.54,42.0
47.6115,23.0
47.683,14.0
47.7544,9.0
47.8259,6.0
47.8974,6.0
47.969,9.0
48.0405,8.0
48.112,13.0
48.1835,21.0
48.255,45.0
48.3266,65.0
48.3981,47.0
48.4697,32.0
48.5412,13.0
48.6128,9.0
48.6844,15.0
48.7559,21.0
48.8275,27.0
48.8991,41.0
48.9707,35.0
49.0423,23.0
49.1139,14.0
49.1855,9.0
49.2571,4.0
49.3287,7.0
49.4004,8.0
49.472,7.0
49.5436,9.0
49.6153,7.0
49.6869,6.0
49.7586,12.0
49.8303,17.0
49.9019,16.0
49.9736,14.0
50.0453,14.0
50.117,8.0
50.1887,7.0
50.2604,10.0
50.3321,10.0
50.4038,7.0
50.4755,6.0
50.5473,8.0
50.619,9.0
50.6907,14.0
50.7625,8.0
50.8342,8.0
50.906,10.0
50.9778,33.0
51.0495,46.0
51.1213,51.0
51.1931,41.0
51.2649,28.0
51.3367,18.0
51.4085,9.0
51.4803,8.0
51.5521,5.0
51.624,7.0
51.6958,10.0
51.7676,5.0
51.8395,4.0
51.9113,8.0
51.9832,6.0
52.0551,4.0
52.1269,8.0
52.1988,9.0
52.2707,9.0
52.3426,8.0
52.4145,12.0
52.4864,10.0
52.5583,12.0
52.6302,7.0
52.7021,6.0
52.7741,5.0
52.846,4.0
52.918,4.0
52.9899,7.0
53.0619,6.0
53.1338,10.0
53.2058,9.0
53.2778,7.0
53.3498,5.0
53.4218,8.0
53.4938,8.0
53.5658,4.0
53.6378,6.0
53.7098,6.0
53.7818,8.0
53.8539,5.0
53.9259,11.0
53.998,9.0
54.07,9.0
54.1421,6.0
54.2142,6.0
54.2862,6.0
54.3583,9.0
54.4304,6.0
54.5025,5.0
54.5746,8.0
54.6467,5.0
54.7189,13.0
54.791,23.0
54.8631,19.0
54.9353,21.0
55.0074,12.0
55.0796,13.0
55.1518,21.0
55.2239,30.0
55.2961,19.0
55.3683,19.0
55.4405,15.0
55.5127,13.0
55.5849,10.0
55.6571,11.0
55.7293,13.0
55.8016,21.0
55.8738,30.0
55.9461,28.0
56.0183,28.0
56.0906,22.0
56.1628,13.0
56.2351,14.0
56.3074,11.0
56.3797,13.0
56.452,28.0
56.5243,47.0
56.5966,45.0
56.6689,45.0
56.7413,37.0
56.8136,18.0
56.886,22.0
56.9583,27.0
57.0307,33.0
57.103,24.0
57.1754,17.0
57.2478,9.0
57.3202,13.0
57.3926,12.0
57.465,9.0
57.5374,8.0
57.6098,15.0
57.6823,10.0
57.7547,15.0
57.8272,18.0
57.8996,11.0
57.9721,13.0
58.0446,15.0
58.117,12.0
58.1895,18.0
58.262,22.0
58.3345,15.0
58.407,12.0
58.4796,13.0
58.5521,16.0
58.6246,8.0
58.6972,9.0
58.7697,15.0
58.8423,10.0
58.9148,8.0
58.9874,9.0
59.06,9.0
59.1326,10.0
59.2052,18.0
59.2778,15.0
59.3504,16.0
59.4231,15.0
59.4957,7.0
59.5683,6.0
59.641,10.0
59.7136,18.0
59.7863,16.0
59.859,12.0
59.9317,12.0
60.0044,9.0
60.0771,11.0
60.1498,7.0
60.2225,19.0
60.2952,27.0
60.368,20.0
60.4407,20.0
60.5135,18.0
60.5862,18.0
60.659,28.0
60.7318,22.0
60.8046,21.0
60.8774,22.0
60.9502,18.0
61.023,31.0
61.0958,23.0
61.1686,17.0
61.2415,12.0
61.3143,8.0
61.3872,12.0
61.4601,13.0
61.5329,12.0
61.6058,32.0
61.6787,23.0
61.7516,18.0
61.8245,16.0
61.8974,11.0
61.9704,14.0
62.0433,14.0
62.1163,18.0
62.1892,22.0
62.2622,26.0
62.3352,43.0
62.4081,30.0
62.4811,20.0
62.5541,36.0
62.6272,44.0
62.7002,63.0
62.7732,57.0
62.8462,39.0
62.9193,34.0
62.9923,21.0
63.0654,19.0
63.1385,15.0
63.2116,10.0
63.2847,10.0
63.3578,3.0
63.4309,8.0
63.504,13.0
63.5771,15.0
63.6503,19.0
63.7234,17.0
63.7966,11.0
63.8698,14.0
63.943,15.0
64.0161,12.0
64.0893,19.0
64.1625,12.0
64.2358,14.0
64.309,13.0
64.3822,9.0
64.4555,9.0
64.5287,15.0
64.602,12.0
64.6753,8.0
64.7486,13.0
64.8219,15.0
64.8952,15.0
64.9685,12.0
65.0418,9.0
65.1151,14.0
65.1885,12.0
65.2619,12.0
65.3352,15.0
65.4086,18.0
65.482,15.0
65.5554,13.0
65.6288,17.0
65.7022,16.0
65.7756,15.0
65.8491,11.0
65.9225,9.0
65.996,8.0
66.0694,7.0
66.1429,7.0
66.2164,7.0
66.2899,5.0
66.3634,8.0
66.4369,10.0
66.5104,7.0
66.584,7.0
66.6575,7.0
66.7311,8.0
66.8047,9.0
66.8782,6.0
66.9518,7.0
67.0254,6.0
67.099,8.0
67.1727,6.0
67.2463,10.0
67.3199,12.0
67.3936,11.0
67.4673,13.0
67.5409,12.0
67.6146,11.0
67.6883,23.0
67.762,19.0
67.8357,23.0
67.9095,37.0
67.9832,20.0
68.057,13.0
68.1307,12.0
68.2045,5.0
68.2783,12.0
68.3521,7.0
68.4259,7.0
68.4997,9.0
68.5735,6.0
68.6473,4.0
68.7212,11.0
68.7951,21.0
68.8689,19.0
68.9428,19.0
69.0167,10.0
69.0906,15.0
69.1645,11.0
69.2384,9.0
69.3124,8.0
69.3863,7.0
69.4603,9.0
69.5343,6.0
69.6082,11.0
69.6822,12.0
69.7562,14.0
69.8303,14.0
69.9043,8.0
69.9783,11.0
70.0524,12.0
70.1264,9.0
70.2005,13.0
70.2746,10.0
70.3487,5.0
70.4228,7.0
70.4969,8.0
70.5711,11.0
70.6452,11.0
70.7194,11.0
70.7935,6.0
70.8677,6.0
70.9419,8.0
71.0161,11.0
71.0903,11.0
71.1646,7.0
71.2388,8.0
71.313,12.0
71.3873,9.0
71.4616,17.0
71.5359,21.0
71.6102,14.0
71.6845,10.0
71.7588,14.0
71.8331,21.0
71.9075,8.0
71.9818,7.0
72.0562,4.0
72.1306,10.0
72.205,7.0
72.2794,9.0
72.3538,8.0
72.4283,8.0
72.5027,11.0
72.5772,9.0
72.6516,8.0
72.7261,7.0
72.8006,2.0
72.8751,9.0
72.9497,11.0
73.0242,5.0
73.0987,9.0
73.1733,8.0
73.2479,6.0
73.3224,10.0
73.397,8.0
73.4717,12.0
73.5463,27.0
73.6209,8.0
73.6956,18.0
73.7702,14.0
73.8449,19.0
73.9196,13.0
73.9943,14.0
74.069,9.0
74.1437,17.0
74.2185,12.0
74.2932,18.0
74.368,8.0
74.4428,9.0
74.5176,7.0
74.5924,12.0
74.6672,5.0
74.742,12.0
74.8169,17.0
74.8917,5.0
74.9666,9.0
75.0415,11.0
75.1164,7.0
75.1913,6.0
75.2662,12.0
75.3412,8.0
75.4161,14.0
75.4911,14.0
75.5661,18.0
75.6411,17.0
75.7161,23.0
75.7911,24.0
75.8661,22.0
75.9412,14.0
76.0162,16.0
76.0913,12.0
76.1664,13.0
76.2415,12.0
76.3166,13.0
76.3918,10.0
76.4669,13.0
76.5421,26.0
76.6172,15.0
76.6924,9.0
76.7676,20.0
76.8428,14.0
76.9181,10.0
76.9933,9.0
77.0686,10.0
77.1439,19.0
77.2192,14.0
77.2945,12.0
77.3698,10.0
77.4451,7.0
77.5205,13.0
77.5958,13.0
77.6712,10.0
77.7466,8.0
77.822,10.0
77.8974,14.0
77.9728,19.0
78.0483,12.0
78.1238,13.0
78.1992,16.0
78.2747,15.0
78.3502,18.0
78.4258,27.0
78.5013,24.0
78.5769,21.0
78.6524,17.0
78.728,16.0
78.8036,11.0
78.8792,18.0
78.9549,10.0
79.0305,7.0
79.1062,5.0
79.1818,10.0
79.2575,6.0
79.3332,8.0
79.409,6.0
79.4847,4.0
79.5604,12.0
79.6362,9.0
79.712,12.0
79.7878,15.0
79.8636,12.0
79.9394,9.0
80.0153,8.0
80.0912,9.0
80.167,9.0
80.2429,5.0
80.3188,8.0
80.3948,13.0
80.4707,8.0
80.5467,13.0
80.6226,10.0
80.6986,9.0
80.7746,6.0
80.8507,4.0
80.9267,10.0
81.0028,6.0
81.0788,11.0
81.1549,6.0
81.231,5.0
81.3071,12.0
81.3833,8.0
81.4594,9.0
81.5356,11.0
81.6118,11.0
81.688,12.0
81.7642,12.0
81.8404,12.0
81.9167,8.0
81.993,10.0
82.0693,6.0
82.1456,5.0
82.2219,11.0
82.2982,7.0
82.3746,8.0
82.4509,8.0
82.5273,4.0
82.6037,2.0
82.6802,8.0
82.7566,5.0
82.8331,14.0
82.9095,11.0
82.986,20.0
83.0625,17.0
83.1391,10.0
83.2156,6.0
83.2922,7.0
83.3687,9.0
83.4453,11.0
83.522,7.0
83.5986,6.0
83.6241,5.0