File: data/xrd/xy/Dimethylammmonium_Bromide.lbl_rescaled.xy
# Processed xy data with Haverford two-theta converted to LBL scale
two_theta,intensity
5.81234,5.0
5.8821,10.0
5.95186,7.0
6.02163,4.0
6.0914,4.0
6.16116,6.0
6.23093,7.0
6.3007,7.0
6.37046,3.0
6.44023,5.0
6.51,4.0
6.57977,6.0
6.64954,7.0
6.71931,4.0
6.78908,5.0
6.85886,4.0
6.92863,7.0
6.9984,6.0
7.06818,6.0
7.13795,4.0
7.20773,4.0
7.27751,4.0
7.34728,2.0
7.41706,9.0
7.48684,4.0
7.55662,4.0
7.6264,8.0
7.69618,5.0
7.76596,3.0
7.83574,3.0
7.90553,8.0
7.97531,4.0
8.0451,3.0
8.11488,4.0
8.18467,3.0
8.25445,8.0
8.32424,10.0
8.39403,6.0
8.46382,7.0
8.53361,4.0
8.6034,9.0
8.67319,5.0
8.74299,3.0
8.81278,6.0
8.88257,10.0
8.95237,7.0
9.02217,6.0
9.09196,4.0
9.16176,6.0
9.23156,5.0
9.30136,8.0
9.37116,5.0
9.44096,7.0
9.51076,7.0
9.58057,2.0
9.65037,9.0
9.72018,5.0
9.78998,6.0
9.85979,6.0
9.9296,4.0
9.99941,8.0
10.0692,6.0
10.139,7.0
10.2088,4.0
10.2787,8.0
10.3485,7.0
10.4183,6.0
10.4881,4.0
10.5579,4.0
10.6277,6.0
10.6976,6.0
10.7674,8.0
10.8372,3.0
10.907,5.0
10.9768,4.0
11.0467,5.0
11.1165,6.0
11.1863,8.0
11.2561,4.0
11.326,3.0
11.3958,4.0
11.4656,4.0
11.5355,6.0
11.6053,2.0
11.6751,7.0
11.745,6.0
11.8148,10.0
11.8846,3.0
11.9545,6.0
12.0243,3.0
12.0942,7.0
12.164,6.0
12.2338,4.0
12.3037,7.0
12.3735,6.0
12.4434,3.0
12.5132,4.0
12.5831,7.0
12.6529,5.0
12.7228,7.0
12.7926,8.0
12.8625,5.0
12.9324,5.0
13.0022,1.0
13.0721,6.0
13.1419,6.0
13.2118,5.0
13.2817,3.0
13.3515,6.0
13.4214,5.0
13.4912,4.0
13.5611,7.0
13.631,5.0
13.7009,5.0
13.7707,5.0
13.8406,5.0
13.9105,4.0
13.9803,5.0
14.0502,6.0
14.1201,5.0
14.19,7.0
14.2599,9.0
14.3297,5.0
14.3996,6.0
14.4695,16.0
14.5394,17.0
14.6093,22.0
14.6792,52.0
14.7491,87.0
14.819,45.0
14.8889,12.0
14.9588,4.0
15.0287,18.0
15.0985,37.0
15.1684,60.0
15.2384,64.0
15.3083,44.0
15.3782,11.0
15.4481,10.0
15.518,4.0
15.5879,11.0
15.6578,7.0
15.7277,2.0
15.7976,5.0
15.8675,6.0
15.9374,6.0
16.0074,1.0
16.0773,8.0
16.1472,6.0
16.2171,7.0
16.2871,3.0
16.357,6.0
16.4269,9.0
16.4968,6.0
16.5668,3.0
16.6367,6.0
16.7066,6.0
16.7766,6.0
16.8465,6.0
16.9165,8.0
16.9864,5.0
17.0563,5.0
17.1263,2.0
17.1962,10.0
17.2662,5.0
17.3361,6.0
17.4061,5.0
17.476,6.0
17.546,4.0
17.6159,5.0
17.6859,3.0
17.7559,5.0
17.8258,5.0
17.8958,6.0
17.9658,7.0
18.0357,6.0
18.1057,4.0
18.1757,7.0
18.2456,6.0
18.3156,8.0
18.3856,4.0
18.4556,5.0
18.5255,5.0
18.5955,9.0
18.6655,7.0
18.7355,5.0
18.8055,9.0
18.8755,5.0
18.9455,7.0
19.0155,4.0
19.0854,7.0
19.1554,6.0
19.2254,7.0
19.2954,5.0
19.3654,3.0
19.4354,6.0
19.5055,5.0
19.5755,5.0
19.6455,3.0
19.7155,7.0
19.7855,8.0
19.8555,7.0
19.9255,6.0
19.9956,3.0
20.0656,6.0
20.1356,13.0
20.2056,10.0
20.2757,9.0
20.3457,14.0
20.4157,17.0
20.4858,25.0
20.5558,23.0
20.6258,57.0
20.6959,126.0
20.7659,85.0
20.836,12.0
20.906,15.0
20.9761,27.0
21.0461,39.0
21.1162,31.0
21.1862,57.0
21.2563,68.0
21.3263,123.0
21.3964,91.0
21.4665,35.0
21.5365,29.0
21.6066,18.0
21.6767,36.0
21.7467,49.0
21.8168,50.0
21.8869,39.0
21.957,19.0
22.027,11.0
22.0971,8.0
22.1672,11.0
22.2373,7.0
22.3074,9.0
22.3775,9.0
22.4476,7.0
22.5177,7.0
22.5878,12.0
22.6579,7.0
22.728,5.0
22.7981,9.0
22.8682,4.0
22.9383,12.0
23.0084,7.0
23.0785,6.0
23.1487,9.0
23.2188,7.0
23.2889,8.0
23.359,2.0
23.4292,8.0
23.4993,7.0
23.5694,4.0
23.6395,5.0
23.7097,5.0
23.7798,5.0
23.85,9.0
23.9201,3.0
23.9903,7.0
24.0604,9.0
24.1306,7.0
24.2007,8.0
24.2709,6.0
24.341,6.0
24.4112,5.0
24.4814,8.0
24.5515,5.0
24.6217,9.0
24.6919,8.0
24.762,8.0
24.8322,17.0
24.9024,21.0
24.9726,71.0
25.0428,82.0
25.1129,38.0
25.1831,24.0
25.2533,14.0
25.3235,19.0
25.3937,29.0
25.4639,47.0
25.5341,72.0
25.6043,54.0
25.6745,24.0
25.7447,8.0
25.815,4.0
25.8852,4.0
25.9554,6.0
26.0256,10.0
26.0958,10.0
26.1661,8.0
26.2363,5.0
26.3065,9.0
26.3768,6.0
26.447,5.0
26.5172,7.0
26.5875,6.0
26.6577,14.0
26.728,11.0
26.7982,16.0
26.8685,11.0
26.9387,13.0
27.009,10.0
27.0793,12.0
27.1495,10.0
27.2198,13.0
27.2901,8.0
27.3603,10.0
27.4306,5.0
27.5009,16.0
27.5712,21.0
27.6415,12.0
27.7117,13.0
27.782,16.0
27.8523,9.0
27.9226,13.0
27.9929,11.0
28.0632,13.0
28.1335,6.0
28.2038,19.0
28.2742,10.0
28.3445,10.0
28.4148,14.0
28.4851,15.0
28.5554,12.0
28.6258,12.0
28.6961,17.0
28.7664,16.0
28.8368,14.0
28.9071,16.0
28.9774,23.0
29.0478,33.0
29.1181,29.0
29.1885,42.0
29.2588,64.0
29.3292,78.0
29.3995,83.0
29.4699,137.0
29.5403,470.0
29.6106,1971.0
29.681,3677.0
29.7514,2766.0
29.8218,903.0
29.8921,245.0
29.9625,140.0
30.0329,109.0
30.1033,92.0
30.1737,68.0
30.2441,72.0
30.3145,139.0
30.3849,235.0
30.4553,241.0
30.5257,184.0
30.5961,188.0
30.6666,425.0
30.737,2072.0
30.8074,2614.0
30.8778,1349.0
30.9482,457.0
31.0187,254.0
31.0891,149.0
31.1596,67.0
31.23,36.0
31.3004,20.0
31.3709,14.0
31.4413,13.0
31.5118,24.0
31.5823,14.0
31.6527,11.0
31.7232,17.0
31.7937,15.0
31.8641,13.0
31.9346,13.0
32.0051,16.0
32.0756,18.0
32.1461,13.0
32.2166,17.0
32.287,19.0
32.3575,31.0
32.428,65.0
32.4985,109.0
32.5691,120.0
32.6396,63.0
32.7101,26.0
32.7806,29.0
32.8511,45.0
32.9216,58.0
32.9922,23.0
33.0627,19.0
33.1332,11.0
33.2038,15.0
33.2743,12.0
33.3449,14.0
33.4154,21.0
33.486,31.0
33.5565,34.0
33.6271,39.0
33.6977,24.0
33.7682,13.0
33.8388,11.0
33.9094,7.0
33.9799,12.0
34.0505,12.0
34.1211,12.0
34.1917,12.0
34.2623,14.0
34.3329,13.0
34.4035,9.0
34.4741,10.0
34.5447,14.0
34.6153,11.0
34.6859,13.0
34.7566,5.0
34.8272,12.0
34.8978,12.0
34.9684,22.0
35.0391,18.0
35.1097,15.0
35.1804,10.0
35.251,12.0
35.3217,15.0
35.3923,10.0
35.463,9.0
35.5336,8.0
35.6043,13.0
35.675,12.0
35.7457,9.0
35.8163,6.0
35.887,19.0
35.9577,10.0
36.0284,11.0
36.0991,9.0
36.1698,9.0
36.2405,12.0
36.3112,15.0
36.3819,17.0
36.4526,67.0
36.5233,84.0
36.594,113.0
36.6648,138.0
36.7355,100.0
36.8062,50.0
36.877,21.0
36.9477,15.0
37.0185,11.0
37.0892,8.0
37.16,15.0
37.2307,9.0
37.3015,13.0
37.3723,13.0
37.443,17.0
37.5138,15.0
37.5846,18.0
37.6554,11.0
37.7262,23.0
37.7969,15.0
37.8677,23.0
37.9385,12.0
38.0094,10.0
38.0802,6.0
38.151,9.0
38.2218,9.0
38.2926,9.0
38.3634,6.0
38.4343,18.0
38.5051,22.0
38.5759,30.0
38.6468,19.0
38.7176,17.0
38.7885,15.0
38.8593,7.0
38.9302,14.0
39.0011,7.0
39.0719,11.0
39.1428,9.0
39.2137,6.0
39.2846,9.0
39.3555,5.0
39.4264,9.0
39.4972,9.0
39.5681,4.0
39.6391,10.0
39.71,12.0
39.7809,6.0
39.8518,5.0
39.9227,4.0
39.9936,8.0
40.0646,7.0
40.1355,12.0
40.2065,11.0
40.2774,7.0
40.3484,8.0
40.4193,8.0
40.4903,9.0
40.5612,8.0
40.6322,7.0
40.7032,10.0
40.7742,10.0
40.8451,15.0
40.9161,11.0
40.9871,7.0
41.0581,10.0
41.1291,8.0
41.2001,15.0
41.2711,12.0
41.3421,18.0
41.4132,17.0
41.4842,13.0
41.5552,10.0
41.6263,17.0
41.6973,21.0
41.7683,12.0
41.8394,13.0
41.9104,17.0
41.9815,30.0
42.0526,42.0
42.1236,52.0
42.1947,38.0
42.2658,35.0
42.3369,24.0
42.408,60.0
42.4791,67.0
42.5502,51.0
42.6213,30.0
42.6924,15.0
42.7635,11.0
42.8346,13.0
42.9057,6.0
42.9768,14.0
43.048,12.0
43.1191,10.0
43.1903,10.0
43.2614,7.0
43.3326,16.0
43.4037,18.0
43.4749,27.0
43.5461,28.0
43.6172,26.0
43.6884,21.0
43.7596,17.0
43.8308,18.0
43.902,18.0
43.9732,21.0
44.0444,25.0
44.1156,24.0
44.1868,26.0
44.258,25.0
44.3292,23.0
44.4005,37.0
44.4717,42.0
44.543,36.0
44.6142,33.0
44.6855,23.0
44.7567,26.0
44.828,20.0
44.8992,23.0
44.9705,19.0
45.0418,27.0
45.1131,98.0
45.1844,257.0
45.2557,192.0
45.327,132.0
45.3983,54.0
45.4696,20.0
45.5409,16.0
45.6122,18.0
45.6835,17.0
45.7549,30.0
45.8262,21.0
45.8975,13.0
45.9689,15.0
46.0403,14.0
46.1116,9.0
46.183,13.0
46.2543,15.0
46.3257,13.0
46.3971,14.0
46.4685,11.0
46.5399,10.0
46.6113,17.0
46.6827,16.0
46.7541,16.0
46.8255,29.0
46.8969,68.0
46.9684,93.0
47.0398,65.0
47.1112,43.0
47.1827,36.0
47.2541,29.0
47.3256,26.0
47.3971,25.0
47.4685,20.0
47.54,31.0
47.6115,27.0
47.683,22.0
47.7544,26.0
47.8259,21.0
47.8974,18.0
47.969,11.0
48.0405,16.0
48.112,11.0
48.1835,15.0
48.255,12.0
48.3266,13.0
48.3981,17.0
48.4697,12.0
48.5412,17.0
48.6128,24.0
48.6844,28.0
48.7559,33.0
48.8275,40.0
48.8991,38.0
48.9707,27.0
49.0423,21.0
49.1139,19.0
49.1855,23.0
49.2571,21.0
49.3287,20.0
49.4004,41.0
49.472,55.0
49.5436,41.0
49.6153,29.0
49.6869,25.0
49.7586,20.0
49.8303,14.0
49.9019,15.0
49.9736,12.0
50.0453,26.0
50.117,28.0
50.1887,51.0
50.2604,69.0
50.3321,56.0
50.4038,44.0
50.4755,28.0
50.5473,13.0
50.619,9.0
50.6907,15.0
50.7625,11.0
50.8342,13.0
50.906,12.0
50.9778,13.0
51.0495,15.0
51.1213,10.0
51.1931,10.0
51.2649,12.0
51.3367,12.0
51.4085,9.0
51.4803,14.0
51.5521,11.0
51.624,9.0
51.6958,11.0
51.7676,13.0
51.8395,11.0
51.9113,14.0
51.9832,15.0
52.0551,13.0
52.1269,12.0
52.1988,11.0
52.2707,6.0
52.3426,10.0
52.4145,14.0
52.4864,10.0
52.5583,8.0
52.6302,10.0
52.7021,9.0
52.7741,10.0
52.846,12.0
52.918,6.0
52.9899,14.0
53.0619,9.0
53.1338,12.0
53.2058,9.0
53.2778,9.0
53.3498,10.0
53.4218,8.0
53.4938,11.0
53.5658,11.0
53.6378,8.0
53.7098,9.0
53.7818,8.0
53.8539,11.0
53.9259,10.0
53.998,12.0
54.07,13.0
54.1421,18.0
54.2142,19.0
54.2862,18.0
54.3583,14.0
54.4304,9.0
54.5025,12.0
54.5746,13.0
54.6467,18.0
54.7189,9.0
54.791,11.0
54.8631,13.0
54.9353,13.0
55.0074,31.0
55.0796,25.0
55.1518,29.0
55.2239,27.0
55.2961,36.0
55.3683,26.0
55.4405,17.0
55.5127,20.0
55.5849,16.0
55.6571,12.0
55.7293,11.0
55.8016,11.0
55.8738,8.0
55.9461,5.0
56.0183,9.0
56.0906,13.0
56.1628,13.0
56.2351,11.0
56.3074,9.0
56.3797,11.0
56.452,10.0
56.5243,10.0
56.5966,9.0
56.6689,7.0
56.7413,9.0
56.8136,11.0
56.886,19.0
56.9583,12.0
57.0307,24.0
57.103,48.0
57.1754,58.0
57.2478,40.0
57.3202,32.0
57.3926,25.0
57.465,10.0
57.5374,11.0
57.6098,9.0
57.6823,11.0
57.7547,16.0
57.8272,15.0
57.8996,27.0
57.9721,35.0
58.0446,24.0
58.117,24.0
58.1895,14.0
58.262,14.0
58.3345,9.0
58.407,11.0
58.4796,11.0
58.5521,11.0
58.6246,12.0
58.6972,15.0
58.7697,16.0
58.8423,10.0
58.9148,14.0
58.9874,12.0
59.06,23.0
59.1326,19.0
59.2052,16.0
59.2778,18.0
59.3504,16.0
59.4231,16.0
59.4957,16.0
59.5683,12.0
59.641,10.0
59.7136,18.0
59.7863,27.0
59.859,25.0
59.9317,24.0
60.0044,22.0
60.0771,20.0
60.1498,22.0
60.2225,23.0
60.2952,18.0
60.368,19.0
60.4407,13.0
60.5135,16.0
60.5862,13.0
60.659,15.0
60.7318,20.0
60.8046,16.0
60.8774,15.0
60.9502,37.0
61.023,28.0
61.0958,24.0
61.1686,39.0
61.2415,65.0
61.3143,58.0
61.3872,40.0
61.4601,43.0
61.5329,34.0
61.6058,54.0
61.6787,94.0
61.7516,69.0
61.8245,50.0
61.8974,37.0
61.9704,20.0
62.0433,24.0
62.1163,21.0
62.1892,18.0
62.2622,12.0
62.3352,14.0
62.4081,15.0
62.4811,11.0
62.5541,15.0
62.6272,18.0
62.7002,24.0
62.7732,46.0
62.8462,69.0
62.9193,46.0
62.9923,60.0
63.0654,43.0
63.1385,27.0
63.2116,23.0
63.2847,23.0
63.3578,22.0
63.4309,14.0
63.504,14.0
63.5771,17.0
63.6503,18.0
63.7234,22.0
63.7966,10.0
63.8698,14.0
63.943,10.0
64.0161,22.0
64.0893,25.0
64.1625,25.0
64.2358,21.0
64.309,16.0
64.3822,19.0
64.4555,22.0
64.5287,24.0
64.602,20.0
64.6753,14.0
64.7486,11.0
64.8219,17.0
64.8952,14.0
64.9685,18.0
65.0418,18.0
65.1151,16.0
65.1885,13.0
65.2619,26.0
65.3352,44.0
65.4086,36.0
65.482,25.0
65.5554,36.0
65.6288,16.0
65.7022,18.0
65.7756,16.0
65.8491,13.0
65.9225,11.0
65.996,12.0
66.0694,14.0
66.1429,5.0
66.2164,7.0
66.2899,11.0
66.3634,10.0
66.4369,13.0
66.5104,12.0
66.584,14.0
66.6575,8.0
66.7311,12.0
66.8047,14.0
66.8782,12.0
66.9518,12.0
67.0254,19.0
67.099,28.0
67.1727,24.0
67.2463,22.0
67.3199,26.0
67.3936,18.0
67.4673,16.0
67.5409,12.0
67.6146,10.0
67.6883,11.0
67.762,7.0
67.8357,11.0
67.9095,17.0
67.9832,15.0
68.057,15.0
68.1307,15.0
68.2045,10.0
68.2783,15.0
68.3521,18.0
68.4259,18.0
68.4997,12.0
68.5735,14.0
68.6473,17.0
68.7212,13.0
68.7951,18.0
68.8689,13.0
68.9428,17.0
69.0167,18.0
69.0906,14.0
69.1645,13.0
69.2384,19.0
69.3124,16.0
69.3863,16.0
69.4603,12.0
69.5343,11.0
69.6082,10.0
69.6822,12.0
69.7562,10.0
69.8303,13.0
69.9043,13.0
69.9783,15.0
70.0524,11.0
70.1264,17.0
70.2005,14.0
70.2746,11.0
70.3487,13.0
70.4228,16.0
70.4969,17.0
70.5711,20.0
70.6452,19.0
70.7194,13.0
70.7935,18.0
70.8677,16.0
70.9419,17.0
71.0161,20.0
71.0903,18.0
71.1646,22.0
71.2388,21.0
71.313,17.0
71.3873,13.0
71.4616,14.0
71.5359,11.0
71.6102,16.0
71.6845,11.0
71.7588,19.0
71.8331,16.0
71.9075,13.0
71.9818,18.0
72.0562,7.0
72.1306,14.0
72.205,11.0
72.2794,20.0
72.3538,14.0
72.4283,14.0
72.5027,17.0
72.5772,15.0
72.6516,14.0
72.7261,15.0
72.8006,11.0
72.8751,14.0
72.9497,14.0
73.0242,15.0
73.0987,16.0
73.1733,12.0
73.2479,11.0
73.3224,18.0
73.397,9.0
73.4717,10.0
73.5463,16.0
73.6209,24.0
73.6956,18.0
73.7702,14.0
73.8449,21.0
73.9196,17.0
73.9943,13.0
74.069,14.0
74.1437,17.0
74.2185,16.0
74.2932,21.0
74.368,12.0
74.4428,17.0
74.5176,12.0
74.5924,21.0
74.6672,27.0
74.742,21.0
74.8169,22.0
74.8917,18.0
74.9666,15.0
75.0415,11.0
75.1164,11.0
75.1913,14.0
75.2662,18.0
75.3412,13.0
75.4161,14.0
75.4911,8.0
75.5661,8.0
75.6411,14.0
75.7161,8.0
75.7911,7.0
75.8661,15.0
75.9412,14.0
76.0162,6.0
76.0913,10.0
76.1664,14.0
76.2415,17.0
76.3166,12.0
76.3918,10.0
76.4669,9.0
76.5421,9.0
76.6172,12.0
76.6924,17.0
76.7676,15.0
76.8428,16.0
76.9181,11.0
76.9933,16.0
77.0686,9.0
77.1439,10.0
77.2192,18.0
77.2945,13.0
77.3698,21.0
77.4451,10.0
77.5205,16.0
77.5958,13.0
77.6712,11.0
77.7466,18.0
77.822,5.0
77.8974,18.0
77.9728,16.0
78.0483,12.0
78.1238,13.0
78.1992,21.0
78.2747,17.0
78.3502,11.0
78.4258,14.0
78.5013,9.0
78.5769,12.0
78.6524,11.0
78.728,12.0
78.8036,5.0
78.8792,11.0
78.9549,14.0
79.0305,13.0
79.1062,19.0
79.1818,10.0
79.2575,13.0
79.3332,26.0
79.409,13.0
79.4847,18.0
79.5604,31.0
79.6362,34.0
79.712,29.0
79.7878,22.0
79.8636,24.0
79.9394,23.0
80.0153,16.0
80.0912,18.0
80.167,13.0
80.2429,20.0
80.3188,13.0
80.3948,11.0
80.4707,13.0
80.5467,10.0
80.6226,14.0
80.6986,11.0
80.7746,10.0
80.8507,18.0
80.9267,15.0
81.0028,21.0
81.0788,11.0
81.1549,13.0
81.231,8.0
81.3071,8.0
81.3833,9.0
81.4594,11.0
81.5356,15.0
81.6118,13.0
81.688,16.0
81.7642,11.0
81.8404,14.0
81.9167,14.0
81.993,14.0
82.0693,10.0
82.1456,12.0
82.2219,21.0
82.2982,12.0
82.3746,11.0
82.4509,11.0
82.5273,10.0
82.6037,14.0
82.6802,11.0
82.7566,19.0
82.8331,19.0
82.9095,21.0
82.986,17.0
83.0625,23.0
83.1391,15.0
83.2156,16.0
83.2922,16.0
83.3687,14.0
83.4453,15.0
83.522,7.0
83.5986,10.0
83.6241,16.0