File: data/xrd/xy/isobutylammonium_bromide.lbl_rescaled.xy
# Processed xy data with Haverford two-theta converted to LBL scale
two_theta,intensity
5.81234,8.0
5.8821,10.0
5.95186,7.0
6.02163,10.0
6.0914,12.0
6.16116,9.0
6.23093,11.0
6.3007,7.0
6.37046,12.0
6.44023,7.0
6.51,9.0
6.57977,11.0
6.64954,9.0
6.71931,8.0
6.78908,7.0
6.85886,10.0
6.92863,11.0
6.9984,12.0
7.06818,7.0
7.13795,9.0
7.20773,16.0
7.27751,7.0
7.34728,9.0
7.41706,7.0
7.48684,10.0
7.55662,8.0
7.6264,14.0
7.69618,17.0
7.76596,17.0
7.83574,7.0
7.90553,9.0
7.97531,14.0
8.0451,16.0
8.11488,29.0
8.18467,55.0
8.25445,97.0
8.32424,185.0
8.39403,401.0
8.46382,1870.0
8.53361,8887.0
8.6034,8926.0
8.67319,1798.0
8.74299,145.0
8.81278,85.0
8.88257,39.0
8.95237,20.0
9.02217,8.0
9.09196,10.0
9.16176,6.0
9.23156,7.0
9.30136,7.0
9.37116,6.0
9.44096,3.0
9.51076,5.0
9.58057,7.0
9.65037,3.0
9.72018,9.0
9.78998,7.0
9.85979,9.0
9.9296,6.0
9.99941,4.0
10.0692,4.0
10.139,5.0
10.2088,4.0
10.2787,4.0
10.3485,4.0
10.4183,9.0
10.4881,6.0
10.5579,7.0
10.6277,7.0
10.6976,6.0
10.7674,7.0
10.8372,5.0
10.907,2.0
10.9768,6.0
11.0467,8.0
11.1165,3.0
11.1863,5.0
11.2561,7.0
11.326,3.0
11.3958,9.0
11.4656,4.0
11.5355,9.0
11.6053,5.0
11.6751,8.0
11.745,6.0
11.8148,6.0
11.8846,7.0
11.9545,5.0
12.0243,4.0
12.0942,4.0
12.164,3.0
12.2338,4.0
12.3037,5.0
12.3735,6.0
12.4434,4.0
12.5132,5.0
12.5831,7.0
12.6529,4.0
12.7228,5.0
12.7926,4.0
12.8625,4.0
12.9324,3.0
13.0022,9.0
13.0721,5.0
13.1419,5.0
13.2118,6.0
13.2817,2.0
13.3515,7.0
13.4214,3.0
13.4912,4.0
13.5611,7.0
13.631,7.0
13.7009,3.0
13.7707,11.0
13.8406,5.0
13.9105,4.0
13.9803,7.0
14.0502,7.0
14.1201,6.0
14.19,4.0
14.2599,5.0
14.3297,5.0
14.3996,5.0
14.4695,4.0
14.5394,0.0
14.6093,5.0
14.6792,6.0
14.7491,8.0
14.819,3.0
14.8889,7.0
14.9588,4.0
15.0287,2.0
15.0985,7.0
15.1684,5.0
15.2384,3.0
15.3083,7.0
15.3782,6.0
15.4481,4.0
15.518,10.0
15.5879,6.0
15.6578,8.0
15.7277,6.0
15.7976,3.0
15.8675,6.0
15.9374,4.0
16.0074,10.0
16.0773,7.0
16.1472,6.0
16.2171,6.0
16.2871,8.0
16.357,7.0
16.4269,7.0
16.4968,8.0
16.5668,10.0
16.6367,12.0
16.7066,24.0
16.7766,43.0
16.8465,80.0
16.9165,79.0
16.9864,186.0
17.0563,562.0
17.1263,2321.0
17.1962,3022.0
17.2662,1280.0
17.3361,142.0
17.4061,50.0
17.476,43.0
17.546,30.0
17.6159,18.0
17.6859,13.0
17.7559,12.0
17.8258,8.0
17.8958,11.0
17.9658,9.0
18.0357,9.0
18.1057,9.0
18.1757,8.0
18.2456,11.0
18.3156,6.0
18.3856,8.0
18.4556,8.0
18.5255,7.0
18.5955,8.0
18.6655,5.0
18.7355,4.0
18.8055,12.0
18.8755,9.0
18.9455,9.0
19.0155,6.0
19.0854,6.0
19.1554,5.0
19.2254,6.0
19.2954,3.0
19.3654,4.0
19.4354,3.0
19.5055,6.0
19.5755,7.0
19.6455,6.0
19.7155,6.0
19.7855,5.0
19.8555,6.0
19.9255,7.0
19.9956,6.0
20.0656,9.0
20.1356,6.0
20.2056,11.0
20.2757,3.0
20.3457,9.0
20.4157,11.0
20.4858,3.0
20.5558,3.0
20.6258,6.0
20.6959,5.0
20.7659,3.0
20.836,6.0
20.906,6.0
20.9761,4.0
21.0461,8.0
21.1162,5.0
21.1862,7.0
21.2563,2.0
21.3263,5.0
21.3964,9.0
21.4665,7.0
21.5365,7.0
21.6066,6.0
21.6767,7.0
21.7467,8.0
21.8168,9.0
21.8869,4.0
21.957,7.0
22.027,7.0
22.0971,8.0
22.1672,4.0
22.2373,9.0
22.3074,4.0
22.3775,4.0
22.4476,5.0
22.5177,5.0
22.5878,13.0
22.6579,5.0
22.728,8.0
22.7981,5.0
22.8682,6.0
22.9383,12.0
23.0084,7.0
23.0785,5.0
23.1487,9.0
23.2188,7.0
23.2889,10.0
23.359,12.0
23.4292,8.0
23.4993,2.0
23.5694,10.0
23.6395,4.0
23.7097,8.0
23.7798,4.0
23.85,6.0
23.9201,7.0
23.9903,6.0
24.0604,12.0
24.1306,11.0
24.2007,6.0
24.2709,14.0
24.341,11.0
24.4112,17.0
24.4814,9.0
24.5515,12.0
24.6217,15.0
24.6919,40.0
24.762,41.0
24.8322,24.0
24.9024,12.0
24.9726,17.0
25.0428,16.0
25.1129,22.0
25.1831,20.0
25.2533,32.0
25.3235,59.0
25.3937,75.0
25.4639,92.0
25.5341,96.0
25.6043,164.0
25.6745,274.0
25.7447,691.0
25.815,2257.0
25.8852,3946.0
25.9554,2995.0
26.0256,877.0
26.0958,127.0
26.1661,89.0
26.2363,64.0
26.3065,58.0
26.3768,36.0
26.447,31.0
26.5172,22.0
26.5875,18.0
26.6577,26.0
26.728,16.0
26.7982,14.0
26.8685,11.0
26.9387,11.0
27.009,19.0
27.0793,15.0
27.1495,37.0
27.2198,41.0
27.2901,30.0
27.3603,16.0
27.4306,14.0
27.5009,15.0
27.5712,14.0
27.6415,9.0
27.7117,13.0
27.782,8.0
27.8523,15.0
27.9226,15.0
27.9929,9.0
28.0632,14.0
28.1335,9.0
28.2038,9.0
28.2742,9.0
28.3445,6.0
28.4148,12.0
28.4851,8.0
28.5554,11.0
28.6258,13.0
28.6961,13.0
28.7664,10.0
28.8368,13.0
28.9071,10.0
28.9774,10.0
29.0478,15.0
29.1181,7.0
29.1885,14.0
29.2588,14.0
29.3292,12.0
29.3995,12.0
29.4699,15.0
29.5403,12.0
29.6106,13.0
29.681,8.0
29.7514,11.0
29.8218,11.0
29.8921,9.0
29.9625,10.0
30.0329,8.0
30.1033,10.0
30.1737,15.0
30.2441,10.0
30.3145,11.0
30.3849,13.0
30.4553,18.0
30.5257,12.0
30.5961,8.0
30.6666,13.0
30.737,11.0
30.8074,14.0
30.8778,21.0
30.9482,13.0
31.0187,22.0
31.0891,18.0
31.1596,16.0
31.23,25.0
31.3004,21.0
31.3709,30.0
31.4413,28.0
31.5118,18.0
31.5823,24.0
31.6527,23.0
31.7232,13.0
31.7937,13.0
31.8641,25.0
31.9346,18.0
32.0051,19.0
32.0756,30.0
32.1461,24.0
32.2166,25.0
32.287,20.0
32.3575,27.0
32.428,24.0
32.4985,21.0
32.5691,21.0
32.6396,20.0
32.7101,23.0
32.7806,22.0
32.8511,25.0
32.9216,26.0
32.9922,22.0
33.0627,26.0
33.1332,33.0
33.2038,26.0
33.2743,29.0
33.3449,34.0
33.4154,24.0
33.486,40.0
33.5565,29.0
33.6271,38.0
33.6977,40.0
33.7682,35.0
33.8388,62.0
33.9094,51.0
33.9799,49.0
34.0505,57.0
34.1211,63.0
34.1917,65.0
34.2623,102.0
34.3329,133.0
34.4035,190.0
34.4741,272.0
34.5447,521.0
34.6153,1347.0
34.6859,4128.0
34.7566,6463.0
34.8272,4896.0
34.8978,1920.0
34.9684,402.0
35.0391,199.0
35.1097,151.0
35.1804,109.0
35.251,96.0
35.3217,58.0
35.3923,54.0
35.463,54.0
35.5336,59.0
35.6043,42.0
35.675,44.0
35.7457,47.0
35.8163,43.0
35.887,38.0
35.9577,34.0
36.0284,36.0
36.0991,24.0
36.1698,30.0
36.2405,33.0
36.3112,28.0
36.3819,28.0
36.4526,26.0
36.5233,27.0
36.594,28.0
36.6648,25.0
36.7355,33.0
36.8062,65.0
36.877,73.0
36.9477,54.0
37.0185,35.0
37.0892,26.0
37.16,25.0
37.2307,17.0
37.3015,16.0
37.3723,19.0
37.443,13.0
37.5138,15.0
37.5846,14.0
37.6554,18.0
37.7262,14.0
37.7969,17.0
37.8677,16.0
37.9385,14.0
38.0094,16.0
38.0802,16.0
38.151,19.0
38.2218,19.0
38.2926,10.0
38.3634,12.0
38.4343,14.0
38.5051,14.0
38.5759,19.0
38.6468,18.0
38.7176,16.0
38.7885,9.0
38.8593,9.0
38.9302,18.0
39.0011,15.0
39.0719,8.0
39.1428,18.0
39.2137,13.0
39.2846,21.0
39.3555,13.0
39.4264,10.0
39.4972,13.0
39.5681,19.0
39.6391,11.0
39.71,15.0
39.7809,19.0
39.8518,14.0
39.9227,14.0
39.9936,11.0
40.0646,9.0
40.1355,9.0
40.2065,11.0
40.2774,8.0
40.3484,12.0
40.4193,13.0
40.4903,12.0
40.5612,13.0
40.6322,13.0
40.7032,11.0
40.7742,20.0
40.8451,10.0
40.9161,9.0
40.9871,6.0
41.0581,13.0
41.1291,11.0
41.2001,13.0
41.2711,11.0
41.3421,8.0
41.4132,8.0
41.4842,12.0
41.5552,13.0
41.6263,22.0
41.6973,27.0
41.7683,22.0
41.8394,15.0
41.9104,11.0
41.9815,9.0
42.0526,9.0
42.1236,11.0
42.1947,12.0
42.2658,9.0
42.3369,7.0
42.408,9.0
42.4791,9.0
42.5502,8.0
42.6213,9.0
42.6924,14.0
42.7635,12.0
42.8346,8.0
42.9057,10.0
42.9768,12.0
43.048,15.0
43.1191,14.0
43.1903,15.0
43.2614,11.0
43.3326,14.0
43.4037,17.0
43.4749,15.0
43.5461,33.0
43.6172,43.0
43.6884,83.0
43.7596,141.0
43.8308,228.0
43.902,185.0
43.9732,96.0
44.0444,49.0
44.1156,13.0
44.1868,13.0
44.258,17.0
44.3292,17.0
44.4005,10.0
44.4717,12.0
44.543,14.0
44.6142,9.0
44.6855,9.0
44.7567,9.0
44.828,6.0
44.8992,6.0
44.9705,9.0
45.0418,8.0
45.1131,7.0
45.1844,7.0
45.2557,9.0
45.327,10.0
45.3983,10.0
45.4696,8.0
45.5409,12.0
45.6122,10.0
45.6835,8.0
45.7549,8.0
45.8262,2.0
45.8975,6.0
45.9689,9.0
46.0403,9.0
46.1116,6.0
46.183,5.0
46.2543,10.0
46.3257,8.0
46.3971,7.0
46.4685,5.0
46.5399,6.0
46.6113,5.0
46.6827,8.0
46.7541,6.0
46.8255,6.0
46.8969,6.0
46.9684,3.0
47.0398,11.0
47.1112,5.0
47.1827,4.0
47.2541,7.0
47.3256,6.0
47.3971,6.0
47.4685,11.0
47.54,12.0
47.6115,18.0
47.683,13.0
47.7544,9.0
47.8259,10.0
47.8974,13.0
47.969,16.0
48.0405,12.0
48.112,12.0
48.1835,9.0
48.255,7.0
48.3266,5.0
48.3981,11.0
48.4697,9.0
48.5412,12.0
48.6128,9.0
48.6844,6.0
48.7559,10.0
48.8275,13.0
48.8991,7.0
48.9707,6.0
49.0423,9.0
49.1139,6.0
49.1855,6.0
49.2571,7.0
49.3287,9.0
49.4004,9.0
49.472,5.0
49.5436,6.0
49.6153,6.0
49.6869,4.0
49.7586,9.0
49.8303,11.0
49.9019,11.0
49.9736,8.0
50.0453,7.0
50.117,6.0
50.1887,10.0
50.2604,6.0
50.3321,9.0
50.4038,5.0
50.4755,9.0
50.5473,5.0
50.619,8.0
50.6907,7.0
50.7625,9.0
50.8342,9.0
50.906,9.0
50.9778,6.0
51.0495,9.0
51.1213,10.0
51.1931,11.0
51.2649,7.0
51.3367,8.0
51.4085,6.0
51.4803,14.0
51.5521,15.0
51.624,11.0
51.6958,13.0
51.7676,10.0
51.8395,8.0
51.9113,4.0
51.9832,12.0
52.0551,10.0
52.1269,12.0
52.1988,11.0
52.2707,15.0
52.3426,14.0
52.4145,11.0
52.4864,10.0
52.5583,10.0
52.6302,14.0
52.7021,12.0
52.7741,14.0
52.846,17.0
52.918,19.0
52.9899,20.0
53.0619,41.0
53.1338,71.0
53.2058,164.0
53.2778,168.0
53.3498,131.0
53.4218,88.0
53.4938,35.0
53.5658,21.0
53.6378,20.0
53.7098,14.0
53.7818,12.0
53.8539,7.0
53.9259,12.0
53.998,11.0
54.07,14.0
54.1421,8.0
54.2142,13.0
54.2862,14.0
54.3583,9.0
54.4304,16.0
54.5025,13.0
54.5746,13.0
54.6467,13.0
54.7189,12.0
54.791,11.0
54.8631,9.0
54.9353,16.0
55.0074,13.0
55.0796,11.0
55.1518,13.0
55.2239,14.0
55.2961,10.0
55.3683,10.0
55.4405,10.0
55.5127,15.0
55.5849,12.0
55.6571,11.0
55.7293,12.0
55.8016,6.0
55.8738,11.0
55.9461,9.0
56.0183,12.0
56.0906,12.0
56.1628,13.0
56.2351,17.0
56.3074,12.0
56.3797,20.0
56.452,20.0
56.5243,21.0
56.5966,20.0
56.6689,20.0
56.7413,23.0
56.8136,24.0
56.886,27.0
56.9583,16.0
57.0307,18.0
57.103,13.0
57.1754,12.0
57.2478,7.0
57.3202,12.0
57.3926,13.0
57.465,10.0
57.5374,12.0
57.6098,6.0
57.6823,12.0
57.7547,13.0
57.8272,10.0
57.8996,12.0
57.9721,11.0
58.0446,11.0
58.117,10.0
58.1895,13.0
58.262,12.0
58.3345,14.0
58.407,11.0
58.4796,7.0
58.5521,10.0
58.6246,14.0
58.6972,7.0
58.7697,8.0
58.8423,9.0
58.9148,11.0
58.9874,8.0
59.06,15.0
59.1326,12.0
59.2052,13.0
59.2778,12.0
59.3504,11.0
59.4231,8.0
59.4957,12.0
59.5683,12.0
59.641,8.0
59.7136,9.0
59.7863,7.0
59.859,11.0
59.9317,10.0
60.0044,12.0
60.0771,17.0
60.1498,13.0
60.2225,15.0
60.2952,10.0
60.368,8.0
60.4407,14.0
60.5135,10.0
60.5862,8.0
60.659,13.0
60.7318,8.0
60.8046,10.0
60.8774,11.0
60.9502,14.0
61.023,9.0
61.0958,13.0
61.1686,9.0
61.2415,12.0
61.3143,15.0
61.3872,13.0
61.4601,14.0
61.5329,6.0
61.6058,14.0
61.6787,8.0
61.7516,13.0
61.8245,12.0
61.8974,12.0
61.9704,7.0
62.0433,13.0
62.1163,11.0
62.1892,12.0
62.2622,16.0
62.3352,13.0
62.4081,15.0
62.4811,14.0
62.5541,14.0
62.6272,18.0
62.7002,20.0
62.7732,22.0
62.8462,25.0
62.9193,55.0
62.9923,128.0
63.0654,141.0
63.1385,100.0
63.2116,76.0
63.2847,46.0
63.3578,24.0
63.4309,17.0
63.504,12.0
63.5771,9.0
63.6503,16.0
63.7234,10.0
63.7966,12.0
63.8698,13.0
63.943,5.0
64.0161,13.0
64.0893,17.0
64.1625,11.0
64.2358,11.0
64.309,10.0
64.3822,10.0
64.4555,13.0
64.5287,11.0
64.602,12.0
64.6753,11.0
64.7486,6.0
64.8219,12.0
64.8952,5.0
64.9685,11.0
65.0418,10.0
65.1151,10.0
65.1885,7.0
65.2619,6.0
65.3352,13.0
65.4086,11.0
65.482,14.0
65.5554,11.0
65.6288,14.0
65.7022,9.0
65.7756,14.0
65.8491,6.0
65.9225,14.0
65.996,13.0
66.0694,14.0
66.1429,14.0
66.2164,12.0
66.2899,12.0
66.3634,7.0
66.4369,13.0
66.5104,10.0
66.584,10.0
66.6575,12.0
66.7311,12.0
66.8047,10.0
66.8782,9.0
66.9518,8.0
67.0254,9.0
67.099,7.0
67.1727,12.0
67.2463,6.0
67.3199,9.0
67.3936,12.0
67.4673,12.0
67.5409,4.0
67.6146,8.0
67.6883,8.0
67.762,13.0
67.8357,10.0
67.9095,10.0
67.9832,9.0
68.057,6.0
68.1307,9.0
68.2045,11.0
68.2783,15.0
68.3521,9.0
68.4259,9.0
68.4997,9.0
68.5735,10.0
68.6473,11.0
68.7212,9.0
68.7951,11.0
68.8689,12.0
68.9428,13.0
69.0167,13.0
69.0906,20.0
69.1645,20.0
69.2384,23.0
69.3124,21.0
69.3863,14.0
69.4603,18.0
69.5343,13.0
69.6082,8.0
69.6822,14.0
69.7562,14.0
69.8303,7.0
69.9043,12.0
69.9783,19.0
70.0524,14.0
70.1264,11.0
70.2005,21.0
70.2746,12.0
70.3487,6.0
70.4228,11.0
70.4969,12.0
70.5711,16.0
70.6452,11.0
70.7194,10.0
70.7935,7.0
70.8677,11.0
70.9419,12.0
71.0161,10.0
71.0903,15.0
71.1646,8.0
71.2388,9.0
71.313,7.0
71.3873,14.0
71.4616,14.0
71.5359,9.0
71.6102,8.0
71.6845,8.0
71.7588,12.0
71.8331,8.0
71.9075,14.0
71.9818,7.0
72.0562,9.0
72.1306,8.0
72.205,16.0
72.2794,24.0
72.3538,16.0
72.4283,24.0
72.5027,15.0
72.5772,15.0
72.6516,14.0
72.7261,14.0
72.8006,9.0
72.8751,8.0
72.9497,16.0
73.0242,11.0
73.0987,16.0
73.1733,23.0
73.2479,24.0
73.3224,54.0
73.397,74.0
73.4717,46.0
73.5463,32.0
73.6209,31.0
73.6956,27.0
73.7702,9.0
73.8449,13.0
73.9196,12.0
73.9943,14.0
74.069,6.0
74.1437,8.0
74.2185,10.0
74.2932,8.0
74.368,11.0
74.4428,11.0
74.5176,11.0
74.5924,9.0
74.6672,9.0
74.742,11.0
74.8169,9.0
74.8917,4.0
74.9666,13.0
75.0415,11.0
75.1164,10.0
75.1913,13.0
75.2662,7.0
75.3412,11.0
75.4161,11.0
75.4911,9.0
75.5661,15.0
75.6411,14.0
75.7161,6.0
75.7911,14.0
75.8661,9.0
75.9412,11.0
76.0162,10.0
76.0913,11.0
76.1664,15.0
76.2415,16.0
76.3166,14.0
76.3918,12.0
76.4669,17.0
76.5421,15.0
76.6172,11.0
76.6924,12.0
76.7676,12.0
76.8428,11.0
76.9181,7.0
76.9933,6.0
77.0686,11.0
77.1439,8.0
77.2192,12.0
77.2945,10.0
77.3698,8.0
77.4451,8.0
77.5205,12.0
77.5958,9.0
77.6712,12.0
77.7466,11.0
77.822,11.0
77.8974,9.0
77.9728,12.0
78.0483,5.0
78.1238,13.0
78.1992,8.0
78.2747,8.0
78.3502,6.0
78.4258,6.0
78.5013,8.0
78.5769,8.0
78.6524,10.0
78.728,12.0
78.8036,9.0
78.8792,12.0
78.9549,9.0
79.0305,8.0
79.1062,9.0
79.1818,8.0
79.2575,12.0
79.3332,7.0
79.409,3.0
79.4847,4.0
79.5604,8.0
79.6362,8.0
79.712,9.0
79.7878,10.0
79.8636,3.0
79.9394,15.0
80.0153,11.0
80.0912,5.0
80.167,7.0
80.2429,8.0
80.3188,10.0
80.3948,14.0
80.4707,8.0
80.5467,8.0
80.6226,5.0
80.6986,12.0
80.7746,6.0
80.8507,6.0
80.9267,14.0
81.0028,10.0
81.0788,4.0
81.1549,4.0
81.231,10.0
81.3071,9.0
81.3833,4.0
81.4594,12.0
81.5356,11.0
81.6118,7.0
81.688,11.0
81.7642,11.0
81.8404,6.0
81.9167,10.0
81.993,13.0
82.0693,10.0
82.1456,10.0
82.2219,8.0
82.2982,7.0
82.3746,8.0
82.4509,10.0
82.5273,9.0
82.6037,8.0
82.6802,10.0
82.7566,12.0
82.8331,14.0
82.9095,10.0
82.986,9.0
83.0625,9.0
83.1391,9.0
83.2156,6.0
83.2922,10.0
83.3687,11.0
83.4453,9.0
83.522,13.0
83.5986,11.0
83.6241,6.0