File: data/xrd/xy/methylammonium_bromide.lbl_rescaled.xy
# Processed xy data with Haverford two-theta converted to LBL scale
two_theta,intensity
5.81234,6.0
5.8821,5.0
5.95186,4.0
6.02163,4.0
6.0914,6.0
6.16116,5.0
6.23093,5.0
6.3007,3.0
6.37046,3.0
6.44023,2.0
6.51,3.0
6.57977,4.0
6.64954,3.0
6.71931,5.0
6.78908,8.0
6.85886,3.0
6.92863,4.0
6.9984,3.0
7.06818,2.0
7.13795,8.0
7.20773,5.0
7.27751,3.0
7.34728,1.0
7.41706,6.0
7.48684,2.0
7.55662,6.0
7.6264,3.0
7.69618,4.0
7.76596,4.0
7.83574,3.0
7.90553,3.0
7.97531,3.0
8.0451,7.0
8.11488,4.0
8.18467,2.0
8.25445,4.0
8.32424,1.0
8.39403,7.0
8.46382,5.0
8.53361,6.0
8.6034,1.0
8.67319,3.0
8.74299,4.0
8.81278,3.0
8.88257,5.0
8.95237,2.0
9.02217,3.0
9.09196,4.0
9.16176,3.0
9.23156,7.0
9.30136,5.0
9.37116,4.0
9.44096,4.0
9.51076,4.0
9.58057,7.0
9.65037,1.0
9.72018,4.0
9.78998,4.0
9.85979,3.0
9.9296,5.0
9.99941,4.0
10.0692,5.0
10.139,8.0
10.2088,6.0
10.2787,4.0
10.3485,1.0
10.4183,0.0
10.4881,7.0
10.5579,7.0
10.6277,6.0
10.6976,8.0
10.7674,4.0
10.8372,5.0
10.907,3.0
10.9768,9.0
11.0467,5.0
11.1165,7.0
11.1863,9.0
11.2561,13.0
11.326,24.0
11.3958,20.0
11.4656,30.0
11.5355,54.0
11.6053,120.0
11.6751,239.0
11.745,182.0
11.8148,117.0
11.8846,175.0
11.9545,109.0
12.0243,53.0
12.0942,36.0
12.164,7.0
12.2338,6.0
12.3037,6.0
12.3735,7.0
12.4434,8.0
12.5132,6.0
12.5831,7.0
12.6529,4.0
12.7228,3.0
12.7926,8.0
12.8625,6.0
12.9324,8.0
13.0022,4.0
13.0721,6.0
13.1419,5.0
13.2118,7.0
13.2817,7.0
13.3515,5.0
13.4214,8.0
13.4912,2.0
13.5611,4.0
13.631,6.0
13.7009,5.0
13.7707,2.0
13.8406,1.0
13.9105,6.0
13.9803,6.0
14.0502,7.0
14.1201,6.0
14.19,5.0
14.2599,10.0
14.3297,5.0
14.3996,5.0
14.4695,7.0
14.5394,10.0
14.6093,4.0
14.6792,7.0
14.7491,6.0
14.819,5.0
14.8889,3.0
14.9588,8.0
15.0287,4.0
15.0985,4.0
15.1684,7.0
15.2384,4.0
15.3083,8.0
15.3782,4.0
15.4481,9.0
15.518,10.0
15.5879,4.0
15.6578,9.0
15.7277,6.0
15.7976,5.0
15.8675,3.0
15.9374,10.0
16.0074,5.0
16.0773,9.0
16.1472,8.0
16.2171,8.0
16.2871,9.0
16.357,8.0
16.4269,3.0
16.4968,5.0
16.5668,7.0
16.6367,9.0
16.7066,5.0
16.7766,10.0
16.8465,6.0
16.9165,6.0
16.9864,9.0
17.0563,6.0
17.1263,7.0
17.1962,10.0
17.2662,8.0
17.3361,5.0
17.4061,13.0
17.476,7.0
17.546,7.0
17.6159,10.0
17.6859,7.0
17.7559,7.0
17.8258,6.0
17.8958,8.0
17.9658,6.0
18.0357,8.0
18.1057,6.0
18.1757,9.0
18.2456,7.0
18.3156,10.0
18.3856,9.0
18.4556,4.0
18.5255,9.0
18.5955,7.0
18.6655,10.0
18.7355,10.0
18.8055,7.0
18.8755,8.0
18.9455,9.0
19.0155,12.0
19.0854,13.0
19.1554,9.0
19.2254,8.0
19.2954,6.0
19.3654,10.0
19.4354,4.0
19.5055,9.0
19.5755,18.0
19.6455,16.0
19.7155,10.0
19.7855,6.0
19.8555,5.0
19.9255,9.0
19.9956,7.0
20.0656,11.0
20.1356,10.0
20.2056,10.0
20.2757,8.0
20.3457,11.0
20.4157,11.0
20.4858,9.0
20.5558,7.0
20.6258,10.0
20.6959,9.0
20.7659,9.0
20.836,17.0
20.906,5.0
20.9761,13.0
21.0461,13.0
21.1162,13.0
21.1862,9.0
21.2563,13.0
21.3263,23.0
21.3964,12.0
21.4665,14.0
21.5365,14.0
21.6066,9.0
21.6767,12.0
21.7467,15.0
21.8168,12.0
21.8869,11.0
21.957,8.0
22.027,12.0
22.0971,10.0
22.1672,8.0
22.2373,17.0
22.3074,13.0
22.3775,18.0
22.4476,9.0
22.5177,13.0
22.5878,12.0
22.6579,8.0
22.728,19.0
22.7981,14.0
22.8682,21.0
22.9383,19.0
23.0084,20.0
23.0785,21.0
23.1487,33.0
23.2188,59.0
23.2889,72.0
23.359,159.0
23.4292,320.0
23.4993,622.0
23.5694,638.0
23.6395,504.0
23.7097,638.0
23.7798,459.0
23.85,153.0
23.9201,61.0
23.9903,36.0
24.0604,53.0
24.1306,50.0
24.2007,41.0
24.2709,47.0
24.341,53.0
24.4112,70.0
24.4814,106.0
24.5515,114.0
24.6217,179.0
24.6919,179.0
24.762,109.0
24.8322,70.0
24.9024,38.0
24.9726,17.0
25.0428,17.0
25.1129,12.0
25.1831,13.0
25.2533,12.0
25.3235,14.0
25.3937,18.0
25.4639,24.0
25.5341,11.0
25.6043,13.0
25.6745,19.0
25.7447,12.0
25.815,8.0
25.8852,16.0
25.9554,9.0
26.0256,15.0
26.0958,18.0
26.1661,8.0
26.2363,17.0
26.3065,15.0
26.3768,11.0
26.447,15.0
26.5172,15.0
26.5875,12.0
26.6577,13.0
26.728,8.0
26.7982,11.0
26.8685,13.0
26.9387,13.0
27.009,14.0
27.0793,20.0
27.1495,15.0
27.2198,15.0
27.2901,17.0
27.3603,9.0
27.4306,15.0
27.5009,15.0
27.5712,17.0
27.6415,12.0
27.7117,14.0
27.782,13.0
27.8523,14.0
27.9226,23.0
27.9929,15.0
28.0632,22.0
28.1335,13.0
28.2038,18.0
28.2742,16.0
28.3445,14.0
28.4148,17.0
28.4851,10.0
28.5554,16.0
28.6258,12.0
28.6961,22.0
28.7664,11.0
28.8368,12.0
28.9071,12.0
28.9774,19.0
29.0478,14.0
29.1181,15.0
29.1885,14.0
29.2588,12.0
29.3292,15.0
29.3995,16.0
29.4699,24.0
29.5403,15.0
29.6106,19.0
29.681,12.0
29.7514,20.0
29.8218,19.0
29.8921,17.0
29.9625,26.0
30.0329,22.0
30.1033,31.0
30.1737,27.0
30.2441,85.0
30.3145,88.0
30.3849,98.0
30.4553,152.0
30.5257,212.0
30.5961,297.0
30.6666,312.0
30.737,259.0
30.8074,132.0
30.8778,63.0
30.9482,34.0
31.0187,28.0
31.0891,27.0
31.1596,12.0
31.23,20.0
31.3004,20.0
31.3709,22.0
31.4413,16.0
31.5118,20.0
31.5823,24.0
31.6527,33.0
31.7232,37.0
31.7937,51.0
31.8641,67.0
31.9346,118.0
32.0051,173.0
32.0756,224.0
32.1461,307.0
32.2166,377.0
32.287,290.0
32.3575,184.0
32.428,106.0
32.4985,57.0
32.5691,42.0
32.6396,40.0
32.7101,33.0
32.7806,50.0
32.8511,42.0
32.9216,78.0
32.9922,59.0
33.0627,34.0
33.1332,23.0
33.2038,24.0
33.2743,15.0
33.3449,15.0
33.4154,21.0
33.486,17.0
33.5565,18.0
33.6271,12.0
33.6977,16.0
33.7682,17.0
33.8388,15.0
33.9094,6.0
33.9799,11.0
34.0505,15.0
34.1211,11.0
34.1917,15.0
34.2623,10.0
34.3329,15.0
34.4035,11.0
34.4741,15.0
34.5447,18.0
34.6153,18.0
34.6859,11.0
34.7566,22.0
34.8272,15.0
34.8978,18.0
34.9684,15.0
35.0391,16.0
35.1097,24.0
35.1804,19.0
35.251,28.0
35.3217,40.0
35.3923,53.0
35.463,75.0
35.5336,186.0
35.6043,313.0
35.675,343.0
35.7457,371.0
35.8163,429.0
35.887,252.0
35.9577,105.0
36.0284,41.0
36.0991,23.0
36.1698,27.0
36.2405,22.0
36.3112,18.0
36.3819,11.0
36.4526,17.0
36.5233,11.0
36.594,14.0
36.6648,17.0
36.7355,14.0
36.8062,12.0
36.877,11.0
36.9477,11.0
37.0185,12.0
37.0892,12.0
37.16,10.0
37.2307,11.0
37.3015,14.0
37.3723,15.0
37.443,9.0
37.5138,10.0
37.5846,12.0
37.6554,13.0
37.7262,13.0
37.7969,13.0
37.8677,13.0
37.9385,20.0
38.0094,14.0
38.0802,11.0
38.151,15.0
38.2218,15.0
38.2926,13.0
38.3634,13.0
38.4343,15.0
38.5051,20.0
38.5759,40.0
38.6468,55.0
38.7176,74.0
38.7885,89.0
38.8593,129.0
38.9302,145.0
39.0011,166.0
39.0719,138.0
39.1428,97.0
39.2137,62.0
39.2846,30.0
39.3555,25.0
39.4264,18.0
39.4972,14.0
39.5681,12.0
39.6391,14.0
39.71,16.0
39.7809,14.0
39.8518,10.0
39.9227,17.0
39.9936,15.0
40.0646,14.0
40.1355,14.0
40.2065,11.0
40.2774,14.0
40.3484,10.0
40.4193,12.0
40.4903,11.0
40.5612,13.0
40.6322,11.0
40.7032,14.0
40.7742,10.0
40.8451,11.0
40.9161,14.0
40.9871,8.0
41.0581,11.0
41.1291,16.0
41.2001,10.0
41.2711,10.0
41.3421,14.0
41.4132,10.0
41.4842,12.0
41.5552,15.0
41.6263,12.0
41.6973,15.0
41.7683,16.0
41.8394,14.0
41.9104,25.0
41.9815,36.0
42.0526,43.0
42.1236,46.0
42.1947,40.0
42.2658,29.0
42.3369,23.0
42.408,15.0
42.4791,11.0
42.5502,13.0
42.6213,10.0
42.6924,11.0
42.7635,11.0
42.8346,10.0
42.9057,18.0
42.9768,18.0
43.048,6.0
43.1191,9.0
43.1903,13.0
43.2614,13.0
43.3326,14.0
43.4037,23.0
43.4749,25.0
43.5461,46.0
43.6172,64.0
43.6884,108.0
43.7596,136.0
43.8308,103.0
43.902,73.0
43.9732,36.0
44.0444,16.0
44.1156,12.0
44.1868,17.0
44.258,10.0
44.3292,16.0
44.4005,14.0
44.4717,9.0
44.543,11.0
44.6142,15.0
44.6855,8.0
44.7567,10.0
44.828,13.0
44.8992,7.0
44.9705,10.0
45.0418,11.0
45.1131,16.0
45.1844,13.0
45.2557,14.0
45.327,14.0
45.3983,28.0
45.4696,25.0
45.5409,23.0
45.6122,19.0
45.6835,15.0
45.7549,15.0
45.8262,12.0
45.8975,9.0
45.9689,8.0
46.0403,9.0
46.1116,14.0
46.183,16.0
46.2543,8.0
46.3257,5.0
46.3971,10.0
46.4685,12.0
46.5399,14.0
46.6113,12.0
46.6827,12.0
46.7541,13.0
46.8255,14.0
46.8969,13.0
46.9684,13.0
47.0398,20.0
47.1112,15.0
47.1827,21.0
47.2541,23.0
47.3256,42.0
47.3971,61.0
47.4685,87.0
47.54,123.0
47.6115,170.0
47.683,230.0
47.7544,238.0
47.8259,169.0
47.8974,103.0
47.969,53.0
48.0405,28.0
48.112,36.0
48.1835,23.0
48.255,25.0
48.3266,30.0
48.3981,23.0
48.4697,20.0
48.5412,13.0
48.6128,12.0
48.6844,18.0
48.7559,10.0
48.8275,11.0
48.8991,13.0
48.9707,13.0
49.0423,13.0
49.1139,12.0
49.1855,16.0
49.2571,13.0
49.3287,10.0
49.4004,13.0
49.472,11.0
49.5436,12.0
49.6153,15.0
49.6869,20.0
49.7586,14.0
49.8303,17.0
49.9019,21.0
49.9736,21.0
50.0453,29.0
50.117,29.0
50.1887,53.0
50.2604,78.0
50.3321,86.0
50.4038,70.0
50.4755,72.0
50.5473,59.0
50.619,52.0
50.6907,71.0
50.7625,94.0
50.8342,96.0
50.906,77.0
50.9778,54.0
51.0495,47.0
51.1213,29.0
51.1931,19.0
51.2649,20.0
51.3367,18.0
51.4085,15.0
51.4803,11.0
51.5521,14.0
51.624,10.0
51.6958,11.0
51.7676,12.0
51.8395,11.0
51.9113,13.0
51.9832,13.0
52.0551,18.0
52.1269,15.0
52.1988,16.0
52.2707,12.0
52.3426,12.0
52.4145,16.0
52.4864,16.0
52.5583,10.0
52.6302,14.0
52.7021,13.0
52.7741,12.0
52.846,19.0
52.918,20.0
52.9899,28.0
53.0619,47.0
53.1338,52.0
53.2058,96.0
53.2778,120.0
53.3498,144.0
53.4218,142.0
53.4938,115.0
53.5658,74.0
53.6378,43.0
53.7098,24.0
53.7818,15.0
53.8539,19.0
53.9259,18.0
53.998,12.0
54.07,13.0
54.1421,14.0
54.2142,12.0
54.2862,14.0
54.3583,14.0
54.4304,15.0
54.5025,13.0
54.5746,15.0
54.6467,13.0
54.7189,14.0
54.791,14.0
54.8631,14.0
54.9353,27.0
55.0074,28.0
55.0796,53.0
55.1518,64.0
55.2239,87.0
55.2961,109.0
55.3683,114.0
55.4405,116.0
55.5127,69.0
55.5849,42.0
55.6571,26.0
55.7293,15.0
55.8016,10.0
55.8738,16.0
55.9461,13.0
56.0183,9.0
56.0906,10.0
56.1628,11.0
56.2351,13.0
56.3074,13.0
56.3797,10.0
56.452,12.0
56.5243,7.0
56.5966,14.0
56.6689,15.0
56.7413,13.0
56.8136,14.0
56.886,13.0
56.9583,13.0
57.0307,14.0
57.103,13.0
57.1754,12.0
57.2478,18.0
57.3202,16.0
57.3926,27.0
57.465,35.0
57.5374,50.0
57.6098,65.0
57.6823,80.0
57.7547,67.0
57.8272,51.0
57.8996,39.0
57.9721,32.0
58.0446,15.0
58.117,16.0
58.1895,20.0
58.262,11.0
58.3345,14.0
58.407,17.0
58.4796,14.0
58.5521,7.0
58.6246,9.0
58.6972,12.0
58.7697,8.0
58.8423,14.0
58.9148,12.0
58.9874,11.0
59.06,11.0
59.1326,15.0
59.2052,11.0
59.2778,11.0
59.3504,12.0
59.4231,9.0
59.4957,11.0
59.5683,14.0
59.641,8.0
59.7136,13.0
59.7863,12.0
59.859,12.0
59.9317,12.0
60.0044,12.0
60.0771,16.0
60.1498,10.0
60.2225,12.0
60.2952,9.0
60.368,11.0
60.4407,13.0
60.5135,13.0
60.5862,10.0
60.659,18.0
60.7318,13.0
60.8046,15.0
60.8774,10.0
60.9502,10.0
61.023,15.0
61.0958,16.0
61.1686,38.0
61.2415,43.0
61.3143,54.0
61.3872,69.0
61.4601,88.0
61.5329,78.0
61.6058,54.0
61.6787,37.0
61.7516,21.0
61.8245,17.0
61.8974,15.0
61.9704,16.0
62.0433,14.0
62.1163,22.0
62.1892,18.0
62.2622,19.0
62.3352,15.0
62.4081,19.0
62.4811,13.0
62.5541,15.0
62.6272,11.0
62.7002,13.0
62.7732,11.0
62.8462,14.0
62.9193,11.0
62.9923,12.0
63.0654,9.0
63.1385,18.0
63.2116,19.0
63.2847,22.0
63.3578,22.0
63.4309,26.0
63.504,45.0
63.5771,35.0
63.6503,46.0
63.7234,31.0
63.7966,24.0
63.8698,18.0
63.943,18.0
64.0161,11.0
64.0893,9.0
64.1625,11.0
64.2358,18.0
64.309,14.0
64.3822,13.0
64.4555,9.0
64.5287,12.0
64.602,19.0
64.6753,11.0
64.7486,15.0
64.8219,12.0
64.8952,17.0
64.9685,14.0
65.0418,14.0
65.1151,13.0
65.1885,16.0
65.2619,16.0
65.3352,11.0
65.4086,16.0
65.482,14.0
65.5554,17.0
65.6288,19.0
65.7022,20.0
65.7756,22.0
65.8491,38.0
65.9225,20.0
65.996,23.0
66.0694,21.0
66.1429,17.0
66.2164,12.0
66.2899,11.0
66.3634,10.0
66.4369,19.0
66.5104,17.0
66.584,13.0
66.6575,13.0
66.7311,11.0
66.8047,13.0
66.8782,12.0
66.9518,14.0
67.0254,18.0
67.099,13.0
67.1727,19.0
67.2463,12.0
67.3199,9.0
67.3936,17.0
67.4673,16.0
67.5409,12.0
67.6146,17.0
67.6883,12.0
67.762,11.0
67.8357,10.0
67.9095,12.0
67.9832,10.0
68.057,9.0
68.1307,9.0
68.2045,17.0
68.2783,9.0
68.3521,10.0
68.4259,18.0
68.4997,15.0
68.5735,24.0
68.6473,27.0
68.7212,31.0
68.7951,24.0
68.8689,27.0
68.9428,30.0
69.0167,30.0
69.0906,26.0
69.1645,36.0
69.2384,31.0
69.3124,27.0
69.3863,21.0
69.4603,17.0
69.5343,16.0
69.6082,23.0
69.6822,20.0
69.7562,20.0
69.8303,33.0
69.9043,36.0
69.9783,57.0
70.0524,69.0
70.1264,77.0
70.2005,83.0
70.2746,57.0
70.3487,59.0
70.4228,43.0
70.4969,32.0
70.5711,19.0
70.6452,13.0
70.7194,14.0
70.7935,19.0
70.8677,14.0
70.9419,20.0
71.0161,39.0
71.0903,28.0
71.1646,46.0
71.2388,42.0
71.313,65.0
71.3873,68.0
71.4616,55.0
71.5359,37.0
71.6102,43.0
71.6845,25.0
71.7588,27.0
71.8331,22.0
71.9075,37.0
71.9818,32.0
72.0562,27.0
72.1306,39.0
72.205,33.0
72.2794,27.0
72.3538,27.0
72.4283,24.0
72.5027,19.0
72.5772,13.0
72.6516,20.0
72.7261,25.0
72.8006,31.0
72.8751,27.0
72.9497,29.0
73.0242,19.0
73.0987,22.0
73.1733,21.0
73.2479,24.0
73.3224,20.0
73.397,19.0
73.4717,13.0
73.5463,16.0
73.6209,15.0
73.6956,18.0
73.7702,18.0
73.8449,18.0
73.9196,15.0
73.9943,14.0
74.069,7.0
74.1437,14.0
74.2185,15.0
74.2932,14.0
74.368,17.0
74.4428,13.0
74.5176,16.0
74.5924,11.0
74.6672,16.0
74.742,23.0
74.8169,25.0
74.8917,36.0
74.9666,31.0
75.0415,36.0
75.1164,28.0
75.1913,33.0
75.2662,26.0
75.3412,37.0
75.4161,26.0
75.4911,39.0
75.5661,31.0
75.6411,29.0
75.7161,20.0
75.7911,20.0
75.8661,24.0
75.9412,13.0
76.0162,19.0
76.0913,14.0
76.1664,12.0
76.2415,15.0
76.3166,11.0
76.3918,16.0
76.4669,23.0
76.5421,16.0
76.6172,22.0
76.6924,16.0
76.7676,13.0
76.8428,22.0
76.9181,26.0
76.9933,39.0
77.0686,32.0
77.1439,33.0
77.2192,20.0
77.2945,28.0
77.3698,25.0
77.4451,17.0
77.5205,15.0
77.5958,16.0
77.6712,9.0
77.7466,13.0
77.822,13.0
77.8974,20.0
77.9728,18.0
78.0483,26.0
78.1238,24.0
78.1992,40.0
78.2747,36.0
78.3502,50.0
78.4258,39.0
78.5013,37.0
78.5769,26.0
78.6524,24.0
78.728,19.0
78.8036,21.0
78.8792,17.0
78.9549,17.0
79.0305,18.0
79.1062,17.0
79.1818,12.0
79.2575,9.0
79.3332,17.0
79.409,15.0
79.4847,13.0
79.5604,22.0
79.6362,15.0
79.712,9.0
79.7878,14.0
79.8636,12.0
79.9394,14.0
80.0153,15.0
80.0912,13.0
80.167,12.0
80.2429,21.0
80.3188,11.0
80.3948,10.0
80.4707,15.0
80.5467,16.0
80.6226,17.0
80.6986,11.0
80.7746,16.0
80.8507,11.0
80.9267,17.0
81.0028,12.0
81.0788,16.0
81.1549,14.0
81.231,11.0
81.3071,20.0
81.3833,11.0
81.4594,14.0
81.5356,8.0
81.6118,16.0
81.688,14.0
81.7642,9.0
81.8404,8.0
81.9167,13.0
81.993,14.0
82.0693,17.0
82.1456,16.0
82.2219,16.0
82.2982,24.0
82.3746,28.0
82.4509,15.0
82.5273,18.0
82.6037,21.0
82.6802,9.0
82.7566,18.0
82.8331,24.0
82.9095,37.0
82.986,37.0
83.0625,34.0
83.1391,34.0
83.2156,32.0
83.2922,35.0
83.3687,44.0
83.4453,41.0
83.522,35.0
83.5986,45.0
83.6241,38.0