File: data/xrd/xy/N,N_Dimethylethane_1,2_Diammonium_Iodide.lbl_rescaled.xy
# Processed xy data with Haverford two-theta converted to LBL scale
two_theta,intensity
5.81234,6.0
5.8821,5.0
5.95186,4.0
6.02163,7.0
6.0914,5.0
6.16116,3.0
6.23093,5.0
6.3007,5.0
6.37046,4.0
6.44023,6.0
6.51,3.0
6.57977,3.0
6.64954,4.0
6.71931,5.0
6.78908,7.0
6.85886,4.0
6.92863,6.0
6.9984,8.0
7.06818,6.0
7.13795,3.0
7.20773,5.0
7.27751,5.0
7.34728,3.0
7.41706,1.0
7.48684,7.0
7.55662,3.0
7.6264,5.0
7.69618,3.0
7.76596,3.0
7.83574,5.0
7.90553,5.0
7.97531,6.0
8.0451,5.0
8.11488,7.0
8.18467,6.0
8.25445,7.0
8.32424,6.0
8.39403,5.0
8.46382,2.0
8.53361,4.0
8.6034,6.0
8.67319,6.0
8.74299,5.0
8.81278,1.0
8.88257,4.0
8.95237,10.0
9.02217,7.0
9.09196,6.0
9.16176,6.0
9.23156,3.0
9.30136,4.0
9.37116,4.0
9.44096,4.0
9.51076,3.0
9.58057,5.0
9.65037,6.0
9.72018,6.0
9.78998,6.0
9.85979,5.0
9.9296,5.0
9.99941,3.0
10.0692,7.0
10.139,2.0
10.2088,4.0
10.2787,4.0
10.3485,3.0
10.4183,5.0
10.4881,2.0
10.5579,2.0
10.6277,5.0
10.6976,5.0
10.7674,3.0
10.8372,4.0
10.907,7.0
10.9768,5.0
11.0467,1.0
11.1165,5.0
11.1863,0.0
11.2561,4.0
11.326,5.0
11.3958,4.0
11.4656,5.0
11.5355,4.0
11.6053,3.0
11.6751,5.0
11.745,4.0
11.8148,4.0
11.8846,6.0
11.9545,5.0
12.0243,3.0
12.0942,6.0
12.164,3.0
12.2338,8.0
12.3037,5.0
12.3735,2.0
12.4434,4.0
12.5132,7.0
12.5831,5.0
12.6529,4.0
12.7228,5.0
12.7926,3.0
12.8625,3.0
12.9324,5.0
13.0022,5.0
13.0721,5.0
13.1419,5.0
13.2118,3.0
13.2817,4.0
13.3515,5.0
13.4214,5.0
13.4912,4.0
13.5611,3.0
13.631,3.0
13.7009,4.0
13.7707,5.0
13.8406,4.0
13.9105,7.0
13.9803,3.0
14.0502,1.0
14.1201,7.0
14.19,1.0
14.2599,6.0
14.3297,3.0
14.3996,3.0
14.4695,6.0
14.5394,4.0
14.6093,5.0
14.6792,4.0
14.7491,1.0
14.819,8.0
14.8889,0.0
14.9588,8.0
15.0287,4.0
15.0985,9.0
15.1684,8.0
15.2384,6.0
15.3083,5.0
15.3782,7.0
15.4481,1.0
15.518,5.0
15.5879,3.0
15.6578,4.0
15.7277,6.0
15.7976,6.0
15.8675,5.0
15.9374,6.0
16.0074,4.0
16.0773,5.0
16.1472,5.0
16.2171,8.0
16.2871,2.0
16.357,5.0
16.4269,6.0
16.4968,8.0
16.5668,7.0
16.6367,6.0
16.7066,5.0
16.7766,7.0
16.8465,4.0
16.9165,0.0
16.9864,7.0
17.0563,4.0
17.1263,5.0
17.1962,5.0
17.2662,2.0
17.3361,3.0
17.4061,8.0
17.476,2.0
17.546,6.0
17.6159,6.0
17.6859,5.0
17.7559,7.0
17.8258,4.0
17.8958,2.0
17.9658,2.0
18.0357,5.0
18.1057,1.0
18.1757,3.0
18.2456,1.0
18.3156,3.0
18.3856,2.0
18.4556,3.0
18.5255,3.0
18.5955,4.0
18.6655,4.0
18.7355,7.0
18.8055,7.0
18.8755,3.0
18.9455,3.0
19.0155,2.0
19.0854,3.0
19.1554,9.0
19.2254,9.0
19.2954,13.0
19.3654,13.0
19.4354,9.0
19.5055,16.0
19.5755,12.0
19.6455,8.0
19.7155,6.0
19.7855,6.0
19.8555,0.0
19.9255,5.0
19.9956,6.0
20.0656,1.0
20.1356,6.0
20.2056,6.0
20.2757,1.0
20.3457,5.0
20.4157,5.0
20.4858,4.0
20.5558,4.0
20.6258,3.0
20.6959,7.0
20.7659,7.0
20.836,7.0
20.906,6.0
20.9761,10.0
21.0461,6.0
21.1162,8.0
21.1862,3.0
21.2563,4.0
21.3263,3.0
21.3964,3.0
21.4665,2.0
21.5365,3.0
21.6066,4.0
21.6767,5.0
21.7467,7.0
21.8168,7.0
21.8869,9.0
21.957,2.0
22.027,6.0
22.0971,6.0
22.1672,7.0
22.2373,6.0
22.3074,6.0
22.3775,4.0
22.4476,6.0
22.5177,5.0
22.5878,10.0
22.6579,16.0
22.728,9.0
22.7981,14.0
22.8682,16.0
22.9383,27.0
23.0084,21.0
23.0785,25.0
23.1487,6.0
23.2188,9.0
23.2889,8.0
23.359,8.0
23.4292,11.0
23.4993,7.0
23.5694,10.0
23.6395,3.0
23.7097,6.0
23.7798,4.0
23.85,4.0
23.9201,6.0
23.9903,7.0
24.0604,17.0
24.1306,32.0
24.2007,20.0
24.2709,13.0
24.341,10.0
24.4112,10.0
24.4814,19.0
24.5515,17.0
24.6217,12.0
24.6919,12.0
24.762,19.0
24.8322,20.0
24.9024,15.0
24.9726,6.0
25.0428,14.0
25.1129,8.0
25.1831,8.0
25.2533,20.0
25.3235,17.0
25.3937,15.0
25.4639,17.0
25.5341,11.0
25.6043,7.0
25.6745,1.0
25.7447,2.0
25.815,4.0
25.8852,7.0
25.9554,7.0
26.0256,3.0
26.0958,3.0
26.1661,3.0
26.2363,0.0
26.3065,1.0
26.3768,8.0
26.447,12.0
26.5172,12.0
26.5875,15.0
26.6577,12.0
26.728,13.0
26.7982,11.0
26.8685,14.0
26.9387,16.0
27.009,9.0
27.0793,8.0
27.1495,9.0
27.2198,9.0
27.2901,22.0
27.3603,19.0
27.4306,13.0
27.5009,26.0
27.5712,25.0
27.6415,30.0
27.7117,15.0
27.782,7.0
27.8523,5.0
27.9226,2.0
27.9929,2.0
28.0632,5.0
28.1335,16.0
28.2038,13.0
28.2742,13.0
28.3445,9.0
28.4148,15.0
28.4851,10.0
28.5554,15.0
28.6258,21.0
28.6961,24.0
28.7664,36.0
28.8368,30.0
28.9071,31.0
28.9774,11.0
29.0478,7.0
29.1181,6.0
29.1885,0.0
29.2588,2.0
29.3292,7.0
29.3995,8.0
29.4699,2.0
29.5403,6.0
29.6106,3.0
29.681,9.0
29.7514,9.0
29.8218,15.0
29.8921,5.0
29.9625,5.0
30.0329,5.0
30.1033,5.0
30.1737,3.0
30.2441,5.0
30.3145,3.0
30.3849,3.0
30.4553,6.0
30.5257,10.0
30.5961,8.0
30.6666,23.0
30.737,86.0
30.8074,128.0
30.8778,90.0
30.9482,34.0
31.0187,14.0
31.0891,5.0
31.1596,6.0
31.23,5.0
31.3004,6.0
31.3709,0.0
31.4413,4.0
31.5118,3.0
31.5823,5.0
31.6527,5.0
31.7232,9.0
31.7937,14.0
31.8641,14.0
31.9346,16.0
32.0051,13.0
32.0756,6.0
32.1461,4.0
32.2166,4.0
32.287,5.0
32.3575,7.0
32.428,6.0
32.4985,8.0
32.5691,14.0
32.6396,15.0
32.7101,13.0
32.7806,13.0
32.8511,15.0
32.9216,13.0
32.9922,13.0
33.0627,4.0
33.1332,9.0
33.2038,10.0
33.2743,7.0
33.3449,4.0
33.4154,4.0
33.486,2.0
33.5565,3.0
33.6271,6.0
33.6977,11.0
33.7682,10.0
33.8388,6.0
33.9094,11.0
33.9799,14.0
34.0505,18.0
34.1211,15.0
34.1917,9.0
34.2623,8.0
34.3329,4.0
34.4035,4.0
34.4741,4.0
34.5447,3.0
34.6153,3.0
34.6859,0.0
34.7566,3.0
34.8272,1.0
34.8978,2.0
34.9684,0.0
35.0391,4.0
35.1097,1.0
35.1804,2.0
35.251,5.0
35.3217,9.0
35.3923,7.0
35.463,13.0
35.5336,11.0
35.6043,14.0
35.675,21.0
35.7457,17.0
35.8163,6.0
35.887,7.0
35.9577,3.0
36.0284,4.0
36.0991,5.0
36.1698,6.0
36.2405,7.0
36.3112,9.0
36.3819,9.0
36.4526,14.0
36.5233,11.0
36.594,13.0
36.6648,13.0
36.7355,8.0
36.8062,7.0
36.877,6.0
36.9477,7.0
37.0185,5.0
37.0892,4.0
37.16,6.0
37.2307,2.0
37.3015,3.0
37.3723,9.0
37.443,8.0
37.5138,3.0
37.5846,6.0
37.6554,6.0
37.7262,3.0
37.7969,10.0
37.8677,3.0
37.9385,8.0
38.0094,8.0
38.0802,7.0
38.151,9.0
38.2218,2.0
38.2926,10.0
38.3634,4.0
38.4343,4.0
38.5051,4.0
38.5759,6.0
38.6468,5.0
38.7176,7.0
38.7885,13.0
38.8593,14.0
38.9302,12.0
39.0011,5.0
39.0719,6.0
39.1428,4.0
39.2137,4.0
39.2846,5.0
39.3555,4.0
39.4264,10.0
39.4972,7.0
39.5681,4.0
39.6391,1.0
39.71,1.0
39.7809,4.0
39.8518,4.0
39.9227,12.0
39.9936,6.0
40.0646,9.0
40.1355,2.0
40.2065,0.0
40.2774,3.0
40.3484,2.0
40.4193,3.0
40.4903,2.0
40.5612,9.0
40.6322,7.0
40.7032,4.0
40.7742,6.0
40.8451,6.0
40.9161,2.0
40.9871,4.0
41.0581,3.0
41.1291,4.0
41.2001,6.0
41.2711,8.0
41.3421,13.0
41.4132,15.0
41.4842,20.0
41.5552,18.0
41.6263,21.0
41.6973,18.0
41.7683,3.0
41.8394,5.0
41.9104,7.0
41.9815,2.0
42.0526,6.0
42.1236,5.0
42.1947,7.0
42.2658,7.0
42.3369,8.0
42.408,9.0
42.4791,9.0
42.5502,5.0
42.6213,6.0
42.6924,9.0
42.7635,0.0
42.8346,3.0
42.9057,1.0
42.9768,6.0
43.048,8.0
43.1191,2.0
43.1903,6.0
43.2614,6.0
43.3326,5.0
43.4037,4.0
43.4749,5.0
43.5461,4.0
43.6172,5.0
43.6884,4.0
43.7596,5.0
43.8308,3.0
43.902,3.0
43.9732,5.0
44.0444,8.0
44.1156,7.0
44.1868,6.0
44.258,4.0
44.3292,5.0
44.4005,8.0
44.4717,11.0
44.543,9.0
44.6142,9.0
44.6855,6.0
44.7567,7.0
44.828,6.0
44.8992,4.0
44.9705,3.0
45.0418,1.0
45.1131,0.0
45.1844,5.0
45.2557,5.0
45.327,4.0
45.3983,4.0
45.4696,5.0
45.5409,8.0
45.6122,3.0
45.6835,9.0
45.7549,12.0
45.8262,6.0
45.8975,2.0
45.9689,4.0
46.0403,6.0
46.1116,13.0
46.183,9.0
46.2543,5.0
46.3257,6.0
46.3971,8.0
46.4685,11.0
46.5399,15.0
46.6113,15.0
46.6827,17.0
46.7541,21.0
46.8255,13.0
46.8969,11.0
46.9684,15.0
47.0398,13.0
47.1112,9.0
47.1827,7.0
47.2541,8.0
47.3256,7.0
47.3971,6.0
47.4685,7.0
47.54,13.0
47.6115,16.0
47.683,16.0
47.7544,11.0
47.8259,9.0
47.8974,9.0
47.969,7.0
48.0405,11.0
48.112,7.0
48.1835,8.0
48.255,9.0
48.3266,5.0
48.3981,5.0
48.4697,8.0
48.5412,8.0
48.6128,5.0
48.6844,5.0
48.7559,2.0
48.8275,2.0
48.8991,2.0
48.9707,6.0
49.0423,6.0
49.1139,7.0
49.1855,8.0
49.2571,7.0
49.3287,9.0
49.4004,11.0
49.472,15.0
49.5436,19.0
49.6153,21.0
49.6869,17.0
49.7586,11.0
49.8303,7.0
49.9019,9.0
49.9736,5.0
50.0453,10.0
50.117,5.0
50.1887,5.0
50.2604,5.0
50.3321,5.0
50.4038,4.0
50.4755,3.0
50.5473,4.0
50.619,6.0
50.6907,4.0
50.7625,7.0
50.8342,1.0
50.906,4.0
50.9778,7.0
51.0495,4.0
51.1213,5.0
51.1931,11.0
51.2649,5.0
51.3367,9.0
51.4085,14.0
51.4803,6.0
51.5521,8.0
51.624,6.0
51.6958,7.0
51.7676,4.0
51.8395,5.0
51.9113,6.0
51.9832,9.0
52.0551,7.0
52.1269,6.0
52.1988,6.0
52.2707,7.0
52.3426,6.0
52.4145,6.0
52.4864,3.0
52.5583,4.0
52.6302,3.0
52.7021,3.0
52.7741,5.0
52.846,4.0
52.918,4.0
52.9899,4.0
53.0619,6.0
53.1338,3.0
53.2058,4.0
53.2778,6.0
53.3498,8.0
53.4218,3.0
53.4938,5.0
53.5658,2.0
53.6378,3.0
53.7098,3.0
53.7818,5.0
53.8539,6.0
53.9259,4.0
53.998,4.0
54.07,7.0
54.1421,8.0
54.2142,7.0
54.2862,6.0
54.3583,8.0
54.4304,8.0
54.5025,6.0
54.5746,6.0
54.6467,5.0
54.7189,3.0
54.791,6.0
54.8631,2.0
54.9353,3.0
55.0074,0.0
55.0796,6.0
55.1518,8.0
55.2239,6.0
55.2961,10.0
55.3683,4.0
55.4405,6.0
55.5127,4.0
55.5849,4.0
55.6571,5.0
55.7293,5.0
55.8016,4.0
55.8738,6.0
55.9461,3.0
56.0183,5.0
56.0906,9.0
56.1628,7.0
56.2351,4.0
56.3074,6.0
56.3797,6.0
56.452,5.0
56.5243,4.0
56.5966,6.0
56.6689,5.0
56.7413,10.0
56.8136,5.0
56.886,5.0
56.9583,4.0
57.0307,6.0
57.103,6.0
57.1754,6.0
57.2478,4.0
57.3202,5.0
57.3926,3.0
57.465,5.0
57.5374,7.0
57.6098,5.0
57.6823,5.0
57.7547,3.0
57.8272,6.0
57.8996,9.0
57.9721,4.0
58.0446,2.0
58.117,5.0
58.1895,5.0
58.262,6.0
58.3345,4.0
58.407,5.0
58.4796,4.0
58.5521,6.0
58.6246,5.0
58.6972,3.0
58.7697,6.0
58.8423,5.0
58.9148,3.0
58.9874,4.0
59.06,7.0
59.1326,10.0
59.2052,7.0
59.2778,10.0
59.3504,11.0
59.4231,16.0
59.4957,8.0
59.5683,7.0
59.641,8.0
59.7136,5.0
59.7863,5.0
59.859,5.0
59.9317,6.0
60.0044,8.0
60.0771,5.0
60.1498,6.0
60.2225,6.0
60.2952,6.0
60.368,8.0
60.4407,10.0
60.5135,9.0
60.5862,14.0
60.659,10.0
60.7318,6.0
60.8046,7.0
60.8774,7.0
60.9502,5.0
61.023,5.0
61.0958,4.0
61.1686,11.0
61.2415,8.0
61.3143,8.0
61.3872,8.0
61.4601,9.0
61.5329,6.0
61.6058,4.0
61.6787,7.0
61.7516,4.0
61.8245,7.0
61.8974,8.0
61.9704,6.0
62.0433,10.0
62.1163,8.0
62.1892,5.0
62.2622,8.0
62.3352,5.0
62.4081,5.0
62.4811,6.0
62.5541,9.0
62.6272,9.0
62.7002,11.0
62.7732,11.0
62.8462,8.0
62.9193,12.0
62.9923,9.0
63.0654,7.0
63.1385,7.0
63.2116,6.0
63.2847,6.0
63.3578,5.0
63.4309,8.0
63.504,7.0
63.5771,7.0
63.6503,6.0
63.7234,6.0
63.7966,4.0
63.8698,5.0
63.943,5.0
64.0161,11.0
64.0893,6.0
64.1625,9.0
64.2358,7.0
64.309,8.0
64.3822,6.0
64.4555,4.0
64.5287,6.0
64.602,5.0
64.6753,8.0
64.7486,4.0
64.8219,4.0
64.8952,8.0
64.9685,2.0
65.0418,3.0
65.1151,5.0
65.1885,9.0
65.2619,5.0
65.3352,4.0
65.4086,5.0
65.482,5.0
65.5554,7.0
65.6288,5.0
65.7022,4.0
65.7756,7.0
65.8491,6.0
65.9225,8.0
65.996,7.0
66.0694,9.0
66.1429,4.0
66.2164,3.0
66.2899,4.0
66.3634,7.0
66.4369,6.0
66.5104,7.0
66.584,8.0
66.6575,12.0
66.7311,8.0
66.8047,7.0
66.8782,5.0
66.9518,3.0
67.0254,5.0
67.099,5.0
67.1727,5.0
67.2463,6.0
67.3199,6.0
67.3936,4.0
67.4673,4.0
67.5409,6.0
67.6146,4.0
67.6883,2.0
67.762,4.0
67.8357,4.0
67.9095,6.0
67.9832,6.0
68.057,6.0
68.1307,20.0
68.2045,7.0
68.2783,6.0
68.3521,9.0
68.4259,10.0
68.4997,10.0
68.5735,7.0
68.6473,9.0
68.7212,8.0
68.7951,4.0
68.8689,4.0
68.9428,5.0
69.0167,7.0
69.0906,4.0
69.1645,4.0
69.2384,9.0
69.3124,9.0
69.3863,8.0
69.4603,15.0
69.5343,10.0
69.6082,8.0
69.6822,11.0
69.7562,9.0
69.8303,14.0
69.9043,4.0
69.9783,5.0
70.0524,5.0
70.1264,10.0
70.2005,9.0
70.2746,6.0
70.3487,9.0
70.4228,5.0
70.4969,3.0
70.5711,1.0
70.6452,7.0
70.7194,7.0
70.7935,1.0
70.8677,5.0
70.9419,3.0
71.0161,5.0
71.0903,8.0
71.1646,9.0
71.2388,2.0
71.313,4.0
71.3873,8.0
71.4616,9.0
71.5359,8.0
71.6102,7.0
71.6845,6.0
71.7588,9.0
71.8331,7.0
71.9075,8.0
71.9818,4.0
72.0562,11.0
72.1306,10.0
72.205,7.0
72.2794,6.0
72.3538,7.0
72.4283,7.0
72.5027,6.0
72.5772,2.0
72.6516,8.0
72.7261,0.0
72.8006,5.0
72.8751,6.0
72.9497,2.0
73.0242,2.0
73.0987,2.0
73.1733,2.0
73.2479,5.0
73.3224,7.0
73.397,6.0
73.4717,9.0
73.5463,3.0
73.6209,5.0
73.6956,1.0
73.7702,4.0
73.8449,9.0
73.9196,2.0
73.9943,6.0
74.069,7.0
74.1437,5.0
74.2185,11.0
74.2932,5.0
74.368,8.0
74.4428,9.0
74.5176,6.0
74.5924,4.0
74.6672,3.0
74.742,5.0
74.8169,9.0
74.8917,7.0
74.9666,5.0
75.0415,2.0
75.1164,6.0
75.1913,3.0
75.2662,3.0
75.3412,5.0
75.4161,7.0
75.4911,6.0
75.5661,10.0
75.6411,4.0
75.7161,8.0
75.7911,5.0
75.8661,5.0
75.9412,7.0
76.0162,3.0
76.0913,8.0
76.1664,6.0
76.2415,4.0
76.3166,7.0
76.3918,11.0
76.4669,6.0
76.5421,2.0
76.6172,7.0
76.6924,7.0
76.7676,7.0
76.8428,6.0
76.9181,7.0
76.9933,0.0
77.0686,9.0
77.1439,2.0
77.2192,6.0
77.2945,6.0
77.3698,3.0
77.4451,6.0
77.5205,7.0
77.5958,8.0
77.6712,5.0
77.7466,5.0
77.822,5.0
77.8974,4.0
77.9728,6.0
78.0483,3.0
78.1238,4.0
78.1992,5.0
78.2747,6.0
78.3502,4.0
78.4258,5.0
78.5013,4.0
78.5769,6.0
78.6524,3.0
78.728,3.0
78.8036,4.0
78.8792,3.0
78.9549,3.0
79.0305,4.0
79.1062,5.0
79.1818,3.0
79.2575,5.0
79.3332,6.0
79.409,2.0
79.4847,2.0
79.5604,5.0
79.6362,4.0
79.712,6.0
79.7878,4.0
79.8636,8.0
79.9394,5.0
80.0153,8.0
80.0912,5.0
80.167,7.0
80.2429,5.0
80.3188,2.0
80.3948,3.0
80.4707,4.0
80.5467,4.0
80.6226,8.0
80.6986,8.0
80.7746,4.0
80.8507,7.0
80.9267,4.0
81.0028,5.0
81.0788,8.0
81.1549,0.0
81.231,6.0
81.3071,6.0
81.3833,3.0
81.4594,1.0
81.5356,2.0
81.6118,1.0
81.688,6.0
81.7642,6.0
81.8404,5.0
81.9167,3.0
81.993,4.0
82.0693,3.0
82.1456,4.0
82.2219,3.0
82.2982,6.0
82.3746,4.0
82.4509,3.0
82.5273,1.0
82.6037,3.0
82.6802,6.0
82.7566,3.0
82.8331,6.0
82.9095,5.0
82.986,5.0
83.0625,6.0
83.1391,3.0
83.2156,4.0
83.2922,5.0
83.3687,7.0
83.4453,8.0
83.522,3.0
83.5986,3.0
83.6241,7.0