File: data/xrd/xy/N,N_Diethylpropane_1,3_Diammonium_Iodide.lbl_rescaled.xy
# Processed xy data with Haverford two-theta converted to LBL scale
two_theta,intensity
5.81234,7.0
5.8821,8.0
5.95186,5.0
6.02163,6.0
6.0914,5.0
6.16116,3.0
6.23093,4.0
6.3007,10.0
6.37046,3.0
6.44023,6.0
6.51,6.0
6.57977,3.0
6.64954,3.0
6.71931,5.0
6.78908,6.0
6.85886,6.0
6.92863,2.0
6.9984,6.0
7.06818,10.0
7.13795,6.0
7.20773,5.0
7.27751,10.0
7.34728,7.0
7.41706,4.0
7.48684,10.0
7.55662,6.0
7.6264,7.0
7.69618,7.0
7.76596,4.0
7.83574,9.0
7.90553,6.0
7.97531,3.0
8.0451,5.0
8.11488,4.0
8.18467,10.0
8.25445,5.0
8.32424,8.0
8.39403,3.0
8.46382,8.0
8.53361,5.0
8.6034,7.0
8.67319,8.0
8.74299,5.0
8.81278,4.0
8.88257,7.0
8.95237,4.0
9.02217,6.0
9.09196,7.0
9.16176,6.0
9.23156,5.0
9.30136,5.0
9.37116,6.0
9.44096,6.0
9.51076,6.0
9.58057,6.0
9.65037,10.0
9.72018,7.0
9.78998,8.0
9.85979,6.0
9.9296,8.0
9.99941,4.0
10.0692,5.0
10.139,4.0
10.2088,8.0
10.2787,4.0
10.3485,4.0
10.4183,2.0
10.4881,6.0
10.5579,5.0
10.6277,6.0
10.6976,4.0
10.7674,5.0
10.8372,6.0
10.907,2.0
10.9768,6.0
11.0467,3.0
11.1165,5.0
11.1863,8.0
11.2561,5.0
11.326,6.0
11.3958,4.0
11.4656,6.0
11.5355,4.0
11.6053,6.0
11.6751,5.0
11.745,3.0
11.8148,6.0
11.8846,3.0
11.9545,3.0
12.0243,6.0
12.0942,5.0
12.164,8.0
12.2338,9.0
12.3037,16.0
12.3735,19.0
12.4434,9.0
12.5132,7.0
12.5831,3.0
12.6529,4.0
12.7228,5.0
12.7926,11.0
12.8625,8.0
12.9324,2.0
13.0022,6.0
13.0721,4.0
13.1419,6.0
13.2118,6.0
13.2817,1.0
13.3515,7.0
13.4214,2.0
13.4912,3.0
13.5611,1.0
13.631,1.0
13.7009,7.0
13.7707,4.0
13.8406,3.0
13.9105,4.0
13.9803,4.0
14.0502,1.0
14.1201,7.0
14.19,6.0
14.2599,5.0
14.3297,5.0
14.3996,4.0
14.4695,2.0
14.5394,5.0
14.6093,7.0
14.6792,12.0
14.7491,6.0
14.819,10.0
14.8889,36.0
14.9588,27.0
15.0287,7.0
15.0985,7.0
15.1684,8.0
15.2384,6.0
15.3083,7.0
15.3782,9.0
15.4481,3.0
15.518,8.0
15.5879,3.0
15.6578,8.0
15.7277,11.0
15.7976,7.0
15.8675,7.0
15.9374,7.0
16.0074,5.0
16.0773,8.0
16.1472,5.0
16.2171,8.0
16.2871,3.0
16.357,5.0
16.4269,3.0
16.4968,5.0
16.5668,5.0
16.6367,8.0
16.7066,6.0
16.7766,4.0
16.8465,6.0
16.9165,5.0
16.9864,1.0
17.0563,4.0
17.1263,7.0
17.1962,4.0
17.2662,6.0
17.3361,2.0
17.4061,4.0
17.476,5.0
17.546,5.0
17.6159,6.0
17.6859,4.0
17.7559,7.0
17.8258,4.0
17.8958,3.0
17.9658,6.0
18.0357,9.0
18.1057,10.0
18.1757,17.0
18.2456,16.0
18.3156,21.0
18.3856,34.0
18.4556,56.0
18.5255,18.0
18.5955,7.0
18.6655,4.0
18.7355,9.0
18.8055,7.0
18.8755,8.0
18.9455,4.0
19.0155,4.0
19.0854,4.0
19.1554,10.0
19.2254,8.0
19.2954,6.0
19.3654,7.0
19.4354,14.0
19.5055,9.0
19.5755,7.0
19.6455,7.0
19.7155,11.0
19.7855,7.0
19.8555,4.0
19.9255,3.0
19.9956,8.0
20.0656,3.0
20.1356,7.0
20.2056,5.0
20.2757,2.0
20.3457,4.0
20.4157,3.0
20.4858,6.0
20.5558,5.0
20.6258,5.0
20.6959,9.0
20.7659,23.0
20.836,27.0
20.906,14.0
20.9761,15.0
21.0461,13.0
21.1162,12.0
21.1862,22.0
21.2563,16.0
21.3263,6.0
21.3964,6.0
21.4665,6.0
21.5365,4.0
21.6066,5.0
21.6767,4.0
21.7467,5.0
21.8168,4.0
21.8869,5.0
21.957,4.0
22.027,6.0
22.0971,6.0
22.1672,2.0
22.2373,5.0
22.3074,2.0
22.3775,5.0
22.4476,5.0
22.5177,6.0
22.5878,7.0
22.6579,4.0
22.728,2.0
22.7981,7.0
22.8682,6.0
22.9383,3.0
23.0084,8.0
23.0785,9.0
23.1487,4.0
23.2188,8.0
23.2889,6.0
23.359,11.0
23.4292,9.0
23.4993,9.0
23.5694,10.0
23.6395,11.0
23.7097,22.0
23.7798,42.0
23.85,32.0
23.9201,21.0
23.9903,11.0
24.0604,12.0
24.1306,2.0
24.2007,9.0
24.2709,6.0
24.341,10.0
24.4112,10.0
24.4814,6.0
24.5515,6.0
24.6217,2.0
24.6919,3.0
24.762,5.0
24.8322,2.0
24.9024,7.0
24.9726,3.0
25.0428,6.0
25.1129,2.0
25.1831,2.0
25.2533,4.0
25.3235,2.0
25.3937,4.0
25.4639,5.0
25.5341,6.0
25.6043,4.0
25.6745,3.0
25.7447,4.0
25.815,5.0
25.8852,0.0
25.9554,6.0
26.0256,4.0
26.0958,4.0
26.1661,3.0
26.2363,4.0
26.3065,7.0
26.3768,8.0
26.447,4.0
26.5172,6.0
26.5875,5.0
26.6577,13.0
26.728,17.0
26.7982,24.0
26.8685,17.0
26.9387,22.0
27.009,25.0
27.0793,48.0
27.1495,75.0
27.2198,66.0
27.2901,51.0
27.3603,75.0
27.4306,183.0
27.5009,169.0
27.5712,82.0
27.6415,22.0
27.7117,14.0
27.782,16.0
27.8523,15.0
27.9226,6.0
27.9929,6.0
28.0632,6.0
28.1335,7.0
28.2038,6.0
28.2742,4.0
28.3445,14.0
28.4148,19.0
28.4851,36.0
28.5554,31.0
28.6258,19.0
28.6961,14.0
28.7664,8.0
28.8368,10.0
28.9071,6.0
28.9774,6.0
29.0478,6.0
29.1181,2.0
29.1885,5.0
29.2588,4.0
29.3292,3.0
29.3995,5.0
29.4699,3.0
29.5403,1.0
29.6106,10.0
29.681,2.0
29.7514,4.0
29.8218,5.0
29.8921,7.0
29.9625,9.0
30.0329,10.0
30.1033,14.0
30.1737,31.0
30.2441,25.0
30.3145,17.0
30.3849,10.0
30.4553,9.0
30.5257,9.0
30.5961,3.0
30.6666,8.0
30.737,17.0
30.8074,20.0
30.8778,12.0
30.9482,11.0
31.0187,10.0
31.0891,7.0
31.1596,13.0
31.23,19.0
31.3004,27.0
31.3709,21.0
31.4413,11.0
31.5118,6.0
31.5823,9.0
31.6527,8.0
31.7232,3.0
31.7937,4.0
31.8641,1.0
31.9346,4.0
32.0051,1.0
32.0756,3.0
32.1461,8.0
32.2166,3.0
32.287,5.0
32.3575,5.0
32.428,9.0
32.4985,6.0
32.5691,1.0
32.6396,7.0
32.7101,5.0
32.7806,8.0
32.8511,8.0
32.9216,3.0
32.9922,9.0
33.0627,4.0
33.1332,5.0
33.2038,8.0
33.2743,7.0
33.3449,17.0
33.4154,23.0
33.486,47.0
33.5565,45.0
33.6271,22.0
33.6977,17.0
33.7682,24.0
33.8388,24.0
33.9094,16.0
33.9799,11.0
34.0505,3.0
34.1211,7.0
34.1917,4.0
34.2623,3.0
34.3329,5.0
34.4035,3.0
34.4741,1.0
34.5447,2.0
34.6153,9.0
34.6859,9.0
34.7566,8.0
34.8272,15.0
34.8978,32.0
34.9684,22.0
35.0391,13.0
35.1097,6.0
35.1804,5.0
35.251,3.0
35.3217,6.0
35.3923,4.0
35.463,6.0
35.5336,9.0
35.6043,14.0
35.675,17.0
35.7457,15.0
35.8163,8.0
35.887,14.0
35.9577,20.0
36.0284,23.0
36.0991,16.0
36.1698,10.0
36.2405,6.0
36.3112,3.0
36.3819,6.0
36.4526,6.0
36.5233,3.0
36.594,7.0
36.6648,1.0
36.7355,4.0
36.8062,5.0
36.877,4.0
36.9477,3.0
37.0185,7.0
37.0892,2.0
37.16,3.0
37.2307,6.0
37.3015,5.0
37.3723,3.0
37.443,6.0
37.5138,15.0
37.5846,16.0
37.6554,25.0
37.7262,34.0
37.7969,15.0
37.8677,8.0
37.9385,6.0
38.0094,5.0
38.0802,3.0
38.151,6.0
38.2218,7.0
38.2926,4.0
38.3634,4.0
38.4343,7.0
38.5051,12.0
38.5759,7.0
38.6468,7.0
38.7176,6.0
38.7885,8.0
38.8593,2.0
38.9302,5.0
39.0011,10.0
39.0719,31.0
39.1428,44.0
39.2137,40.0
39.2846,27.0
39.3555,13.0
39.4264,9.0
39.4972,10.0
39.5681,4.0
39.6391,5.0
39.71,8.0
39.7809,3.0
39.8518,8.0
39.9227,6.0
39.9936,3.0
40.0646,3.0
40.1355,4.0
40.2065,3.0
40.2774,5.0
40.3484,12.0
40.4193,1.0
40.4903,8.0
40.5612,6.0
40.6322,12.0
40.7032,28.0
40.7742,28.0
40.8451,25.0
40.9161,19.0
40.9871,18.0
41.0581,17.0
41.1291,16.0
41.2001,13.0
41.2711,9.0
41.3421,3.0
41.4132,6.0
41.4842,4.0
41.5552,6.0
41.6263,4.0
41.6973,1.0
41.7683,3.0
41.8394,1.0
41.9104,6.0
41.9815,4.0
42.0526,5.0
42.1236,6.0
42.1947,6.0
42.2658,4.0
42.3369,3.0
42.408,1.0
42.4791,5.0
42.5502,9.0
42.6213,15.0
42.6924,13.0
42.7635,13.0
42.8346,7.0
42.9057,5.0
42.9768,5.0
43.048,4.0
43.1191,3.0
43.1903,6.0
43.2614,2.0
43.3326,2.0
43.4037,3.0
43.4749,4.0
43.5461,3.0
43.6172,5.0
43.6884,8.0
43.7596,6.0
43.8308,6.0
43.902,3.0
43.9732,12.0
44.0444,9.0
44.1156,10.0
44.1868,6.0
44.258,5.0
44.3292,5.0
44.4005,4.0
44.4717,2.0
44.543,6.0
44.6142,6.0
44.6855,4.0
44.7567,4.0
44.828,4.0
44.8992,3.0
44.9705,5.0
45.0418,5.0
45.1131,3.0
45.1844,4.0
45.2557,5.0
45.327,7.0
45.3983,12.0
45.4696,7.0
45.5409,14.0
45.6122,19.0
45.6835,29.0
45.7549,27.0
45.8262,22.0
45.8975,14.0
45.9689,9.0
46.0403,5.0
46.1116,2.0
46.183,4.0
46.2543,6.0
46.3257,8.0
46.3971,7.0
46.4685,7.0
46.5399,7.0
46.6113,16.0
46.6827,38.0
46.7541,39.0
46.8255,37.0
46.8969,25.0
46.9684,12.0
47.0398,9.0
47.1112,9.0
47.1827,4.0
47.2541,6.0
47.3256,7.0
47.3971,5.0
47.4685,4.0
47.54,4.0
47.6115,6.0
47.683,14.0
47.7544,9.0
47.8259,9.0
47.8974,6.0
47.969,6.0
48.0405,4.0
48.112,11.0
48.1835,5.0
48.255,9.0
48.3266,20.0
48.3981,36.0
48.4697,39.0
48.5412,38.0
48.6128,21.0
48.6844,10.0
48.7559,10.0
48.8275,13.0
48.8991,7.0
48.9707,16.0
49.0423,15.0
49.1139,12.0
49.1855,11.0
49.2571,12.0
49.3287,11.0
49.4004,10.0
49.472,8.0
49.5436,6.0
49.6153,7.0
49.6869,8.0
49.7586,7.0
49.8303,9.0
49.9019,10.0
49.9736,6.0
50.0453,9.0
50.117,16.0
50.1887,14.0
50.2604,12.0
50.3321,11.0
50.4038,14.0
50.4755,10.0
50.5473,7.0
50.619,8.0
50.6907,9.0
50.7625,3.0
50.8342,7.0
50.906,4.0
50.9778,9.0
51.0495,8.0
51.1213,8.0
51.1931,5.0
51.2649,7.0
51.3367,4.0
51.4085,8.0
51.4803,7.0
51.5521,10.0
51.624,11.0
51.6958,17.0
51.7676,19.0
51.8395,18.0
51.9113,15.0
51.9832,21.0
52.0551,7.0
52.1269,5.0
52.1988,4.0
52.2707,6.0
52.3426,4.0
52.4145,6.0
52.4864,7.0
52.5583,11.0
52.6302,10.0
52.7021,5.0
52.7741,6.0
52.846,6.0
52.918,5.0
52.9899,7.0
53.0619,12.0
53.1338,8.0
53.2058,9.0
53.2778,10.0
53.3498,8.0
53.4218,8.0
53.4938,3.0
53.5658,5.0
53.6378,5.0
53.7098,5.0
53.7818,7.0
53.8539,3.0
53.9259,7.0
53.998,5.0
54.07,3.0
54.1421,6.0
54.2142,6.0
54.2862,3.0
54.3583,5.0
54.4304,6.0
54.5025,6.0
54.5746,4.0
54.6467,5.0
54.7189,5.0
54.791,3.0
54.8631,4.0
54.9353,5.0
55.0074,3.0
55.0796,3.0
55.1518,7.0
55.2239,3.0
55.2961,6.0
55.3683,5.0
55.4405,5.0
55.5127,7.0
55.5849,15.0
55.6571,22.0
55.7293,19.0
55.8016,22.0
55.8738,11.0
55.9461,10.0
56.0183,6.0
56.0906,7.0
56.1628,8.0
56.2351,9.0
56.3074,7.0
56.3797,5.0
56.452,8.0
56.5243,13.0
56.5966,12.0
56.6689,21.0
56.7413,13.0
56.8136,11.0
56.886,8.0
56.9583,6.0
57.0307,6.0
57.103,6.0
57.1754,7.0
57.2478,7.0
57.3202,4.0
57.3926,8.0
57.465,7.0
57.5374,8.0
57.6098,4.0
57.6823,4.0
57.7547,3.0
57.8272,5.0
57.8996,3.0
57.9721,4.0
58.0446,6.0
58.117,5.0
58.1895,7.0
58.262,13.0
58.3345,6.0
58.407,11.0
58.4796,13.0
58.5521,8.0
58.6246,10.0
58.6972,7.0
58.7697,6.0
58.8423,9.0
58.9148,5.0
58.9874,8.0
59.06,4.0
59.1326,4.0
59.2052,3.0
59.2778,5.0
59.3504,4.0
59.4231,7.0
59.4957,7.0
59.5683,7.0
59.641,12.0
59.7136,12.0
59.7863,12.0
59.859,3.0
59.9317,5.0
60.0044,5.0
60.0771,7.0
60.1498,6.0
60.2225,9.0
60.2952,11.0
60.368,16.0
60.4407,13.0
60.5135,11.0
60.5862,8.0
60.659,3.0
60.7318,7.0
60.8046,7.0
60.8774,7.0
60.9502,6.0
61.023,7.0
61.0958,9.0
61.1686,5.0
61.2415,6.0
61.3143,7.0
61.3872,9.0
61.4601,11.0
61.5329,14.0
61.6058,12.0
61.6787,7.0
61.7516,9.0
61.8245,12.0
61.8974,11.0
61.9704,10.0
62.0433,7.0
62.1163,9.0
62.1892,4.0
62.2622,9.0
62.3352,11.0
62.4081,10.0
62.4811,17.0
62.5541,19.0
62.6272,12.0
62.7002,20.0
62.7732,9.0
62.8462,9.0
62.9193,4.0
62.9923,8.0
63.0654,5.0
63.1385,7.0
63.2116,9.0
63.2847,8.0
63.3578,3.0
63.4309,5.0
63.504,6.0
63.5771,11.0
63.6503,13.0
63.7234,12.0
63.7966,16.0
63.8698,15.0
63.943,8.0
64.0161,9.0
64.0893,5.0
64.1625,5.0
64.2358,3.0
64.309,6.0
64.3822,7.0
64.4555,7.0
64.5287,6.0
64.602,5.0
64.6753,9.0
64.7486,5.0
64.8219,9.0
64.8952,7.0
64.9685,14.0
65.0418,15.0
65.1151,14.0
65.1885,10.0
65.2619,14.0
65.3352,10.0
65.4086,6.0
65.482,3.0
65.5554,6.0
65.6288,7.0
65.7022,3.0
65.7756,2.0
65.8491,5.0
65.9225,5.0
65.996,10.0
66.0694,4.0
66.1429,10.0
66.2164,9.0
66.2899,5.0
66.3634,8.0
66.4369,6.0
66.5104,6.0
66.584,8.0
66.6575,6.0
66.7311,9.0
66.8047,11.0
66.8782,13.0
66.9518,12.0
67.0254,15.0
67.099,10.0
67.1727,9.0
67.2463,11.0
67.3199,10.0
67.3936,7.0
67.4673,12.0
67.5409,14.0
67.6146,14.0
67.6883,13.0
67.762,15.0
67.8357,8.0
67.9095,8.0
67.9832,8.0
68.057,11.0
68.1307,8.0
68.2045,8.0
68.2783,10.0
68.3521,8.0
68.4259,11.0
68.4997,11.0
68.5735,11.0
68.6473,6.0
68.7212,14.0
68.7951,8.0
68.8689,9.0
68.9428,9.0
69.0167,11.0
69.0906,6.0
69.1645,9.0
69.2384,5.0
69.3124,9.0
69.3863,6.0
69.4603,11.0
69.5343,9.0
69.6082,10.0
69.6822,9.0
69.7562,7.0
69.8303,8.0
69.9043,10.0
69.9783,8.0
70.0524,9.0
70.1264,5.0
70.2005,10.0
70.2746,9.0
70.3487,5.0
70.4228,7.0
70.4969,8.0
70.5711,9.0
70.6452,5.0
70.7194,7.0
70.7935,5.0
70.8677,11.0
70.9419,16.0
71.0161,15.0
71.0903,12.0
71.1646,12.0
71.2388,9.0
71.313,11.0
71.3873,5.0
71.4616,5.0
71.5359,5.0
71.6102,7.0
71.6845,4.0
71.7588,10.0
71.8331,7.0
71.9075,7.0
71.9818,4.0
72.0562,4.0
72.1306,8.0
72.205,5.0
72.2794,8.0
72.3538,5.0
72.4283,3.0
72.5027,6.0
72.5772,6.0
72.6516,3.0
72.7261,4.0
72.8006,10.0
72.8751,11.0
72.9497,3.0
73.0242,8.0
73.0987,5.0
73.1733,13.0
73.2479,13.0
73.3224,10.0
73.397,11.0
73.4717,7.0
73.5463,3.0
73.6209,4.0
73.6956,9.0
73.7702,11.0
73.8449,1.0
73.9196,8.0
73.9943,2.0
74.069,4.0
74.1437,4.0
74.2185,4.0
74.2932,6.0
74.368,6.0
74.4428,5.0
74.5176,13.0
74.5924,10.0
74.6672,10.0
74.742,7.0
74.8169,8.0
74.8917,16.0
74.9666,11.0
75.0415,5.0
75.1164,10.0
75.1913,6.0
75.2662,17.0
75.3412,8.0
75.4161,13.0
75.4911,10.0
75.5661,8.0
75.6411,8.0
75.7161,7.0
75.7911,7.0
75.8661,6.0
75.9412,9.0
76.0162,7.0
76.0913,6.0
76.1664,6.0
76.2415,5.0
76.3166,4.0
76.3918,7.0
76.4669,7.0
76.5421,7.0
76.6172,4.0
76.6924,4.0
76.7676,10.0
76.8428,6.0
76.9181,3.0
76.9933,12.0
77.0686,7.0
77.1439,4.0
77.2192,6.0
77.2945,3.0
77.3698,6.0
77.4451,5.0
77.5205,4.0
77.5958,5.0
77.6712,8.0
77.7466,4.0
77.822,2.0
77.8974,6.0
77.9728,7.0
78.0483,11.0
78.1238,8.0
78.1992,7.0
78.2747,7.0
78.3502,10.0
78.4258,6.0
78.5013,3.0
78.5769,8.0
78.6524,4.0
78.728,7.0
78.8036,3.0
78.8792,11.0
78.9549,10.0
79.0305,6.0
79.1062,5.0
79.1818,4.0
79.2575,8.0
79.3332,6.0
79.409,5.0
79.4847,10.0
79.5604,6.0
79.6362,10.0
79.712,5.0
79.7878,5.0
79.8636,3.0
79.9394,3.0
80.0153,6.0
80.0912,10.0
80.167,6.0
80.2429,9.0
80.3188,5.0
80.3948,4.0
80.4707,6.0
80.5467,6.0
80.6226,5.0
80.6986,2.0
80.7746,6.0
80.8507,6.0
80.9267,7.0
81.0028,10.0
81.0788,5.0
81.1549,7.0
81.231,7.0
81.3071,6.0
81.3833,3.0
81.4594,8.0
81.5356,8.0
81.6118,4.0
81.688,5.0
81.7642,11.0
81.8404,5.0
81.9167,8.0
81.993,4.0
82.0693,4.0
82.1456,3.0
82.2219,7.0
82.2982,6.0
82.3746,4.0
82.4509,6.0
82.5273,3.0
82.6037,7.0
82.6802,5.0
82.7566,4.0
82.8331,4.0
82.9095,2.0
82.986,5.0
83.0625,7.0
83.1391,8.0
83.2156,6.0
83.2922,12.0
83.3687,5.0
83.4453,2.0
83.522,3.0
83.5986,5.0
83.6241,6.0