File: data/xrd/xy/n-Dodcylammonium_Bromide.lbl_rescaled.xy
# Processed xy data with Haverford two-theta converted to LBL scale
two_theta,intensity
5.81234,1778.0
5.8821,268.0
5.95186,60.0
6.02163,12.0
6.0914,11.0
6.16116,6.0
6.23093,11.0
6.3007,10.0
6.37046,6.0
6.44023,6.0
6.51,7.0
6.57977,6.0
6.64954,7.0
6.71931,5.0
6.78908,5.0
6.85886,6.0
6.92863,5.0
6.9984,3.0
7.06818,6.0
7.13795,4.0
7.20773,6.0
7.27751,7.0
7.34728,7.0
7.41706,2.0
7.48684,6.0
7.55662,5.0
7.6264,4.0
7.69618,9.0
7.76596,13.0
7.83574,11.0
7.90553,5.0
7.97531,4.0
8.0451,6.0
8.11488,7.0
8.18467,6.0
8.25445,6.0
8.32424,5.0
8.39403,4.0
8.46382,5.0
8.53361,7.0
8.6034,5.0
8.67319,9.0
8.74299,11.0
8.81278,2.0
8.88257,5.0
8.95237,6.0
9.02217,6.0
9.09196,5.0
9.16176,2.0
9.23156,6.0
9.30136,5.0
9.37116,2.0
9.44096,7.0
9.51076,6.0
9.58057,3.0
9.65037,4.0
9.72018,8.0
9.78998,9.0
9.85979,4.0
9.9296,5.0
9.99941,4.0
10.0692,2.0
10.139,4.0
10.2088,6.0
10.2787,9.0
10.3485,8.0
10.4183,7.0
10.4881,5.0
10.5579,4.0
10.6277,4.0
10.6976,10.0
10.7674,9.0
10.8372,11.0
10.907,15.0
10.9768,13.0
11.0467,24.0
11.1165,43.0
11.1863,90.0
11.2561,101.0
11.326,188.0
11.3958,340.0
11.4656,1170.0
11.5355,2106.0
11.6053,1260.0
11.6751,188.0
11.745,45.0
11.8148,33.0
11.8846,21.0
11.9545,7.0
12.0243,3.0
12.0942,7.0
12.164,8.0
12.2338,6.0
12.3037,3.0
12.3735,5.0
12.4434,4.0
12.5132,8.0
12.5831,7.0
12.6529,8.0
12.7228,4.0
12.7926,4.0
12.8625,8.0
12.9324,3.0
13.0022,5.0
13.0721,4.0
13.1419,6.0
13.2118,2.0
13.2817,5.0
13.3515,7.0
13.4214,8.0
13.4912,3.0
13.5611,5.0
13.631,6.0
13.7009,5.0
13.7707,5.0
13.8406,7.0
13.9105,6.0
13.9803,6.0
14.0502,3.0
14.1201,7.0
14.19,8.0
14.2599,3.0
14.3297,0.0
14.3996,2.0
14.4695,5.0
14.5394,8.0
14.6093,5.0
14.6792,2.0
14.7491,4.0
14.819,8.0
14.8889,5.0
14.9588,4.0
15.0287,1.0
15.0985,5.0
15.1684,5.0
15.2384,6.0
15.3083,7.0
15.3782,4.0
15.4481,3.0
15.518,4.0
15.5879,7.0
15.6578,7.0
15.7277,8.0
15.7976,5.0
15.8675,4.0
15.9374,4.0
16.0074,0.0
16.0773,5.0
16.1472,8.0
16.2171,8.0
16.2871,10.0
16.357,10.0
16.4269,8.0
16.4968,4.0
16.5668,8.0
16.6367,10.0
16.7066,13.0
16.7766,11.0
16.8465,22.0
16.9165,20.0
16.9864,41.0
17.0563,54.0
17.1263,103.0
17.1962,228.0
17.2662,542.0
17.3361,1490.0
17.4061,1773.0
17.476,563.0
17.546,100.0
17.6159,32.0
17.6859,29.0
17.7559,24.0
17.8258,13.0
17.8958,13.0
17.9658,12.0
18.0357,14.0
18.1057,7.0
18.1757,7.0
18.2456,14.0
18.3156,9.0
18.3856,4.0
18.4556,5.0
18.5255,8.0
18.5955,7.0
18.6655,9.0
18.7355,4.0
18.8055,6.0
18.8755,7.0
18.9455,4.0
19.0155,9.0
19.0854,6.0
19.1554,2.0
19.2254,5.0
19.2954,8.0
19.3654,12.0
19.4354,3.0
19.5055,6.0
19.5755,6.0
19.6455,2.0
19.7155,4.0
19.7855,4.0
19.8555,7.0
19.9255,5.0
19.9956,4.0
20.0656,11.0
20.1356,5.0
20.2056,3.0
20.2757,12.0
20.3457,15.0
20.4157,12.0
20.4858,12.0
20.5558,13.0
20.6258,7.0
20.6959,9.0
20.7659,7.0
20.836,9.0
20.906,20.0
20.9761,16.0
21.0461,10.0
21.1162,6.0
21.1862,10.0
21.2563,7.0
21.3263,7.0
21.3964,10.0
21.4665,6.0
21.5365,6.0
21.6066,4.0
21.6767,10.0
21.7467,2.0
21.8168,4.0
21.8869,7.0
21.957,7.0
22.027,8.0
22.0971,2.0
22.1672,5.0
22.2373,11.0
22.3074,10.0
22.3775,8.0
22.4476,10.0
22.5177,10.0
22.5878,15.0
22.6579,16.0
22.728,14.0
22.7981,25.0
22.8682,29.0
22.9383,44.0
23.0084,67.0
23.0785,152.0
23.1487,402.0
23.2188,990.0
23.2889,1019.0
23.359,348.0
23.4292,65.0
23.4993,51.0
23.5694,35.0
23.6395,18.0
23.7097,21.0
23.7798,12.0
23.85,18.0
23.9201,21.0
23.9903,18.0
24.0604,18.0
24.1306,14.0
24.2007,11.0
24.2709,8.0
24.341,3.0
24.4112,7.0
24.4814,10.0
24.5515,14.0
24.6217,9.0
24.6919,14.0
24.762,29.0
24.8322,25.0
24.9024,20.0
24.9726,17.0
25.0428,14.0
25.1129,17.0
25.1831,29.0
25.2533,24.0
25.3235,31.0
25.3937,9.0
25.4639,22.0
25.5341,19.0
25.6043,38.0
25.6745,50.0
25.7447,70.0
25.815,46.0
25.8852,28.0
25.9554,15.0
26.0256,9.0
26.0958,7.0
26.1661,10.0
26.2363,8.0
26.3065,5.0
26.3768,6.0
26.447,9.0
26.5172,7.0
26.5875,9.0
26.6577,4.0
26.728,3.0
26.7982,5.0
26.8685,6.0
26.9387,6.0
27.009,5.0
27.0793,4.0
27.1495,12.0
27.2198,7.0
27.2901,10.0
27.3603,4.0
27.4306,10.0
27.5009,12.0
27.5712,20.0
27.6415,17.0
27.7117,24.0
27.782,16.0
27.8523,6.0
27.9226,13.0
27.9929,7.0
28.0632,7.0
28.1335,13.0
28.2038,20.0
28.2742,18.0
28.3445,21.0
28.4148,31.0
28.4851,29.0
28.5554,30.0
28.6258,26.0
28.6961,17.0
28.7664,29.0
28.8368,48.0
28.9071,57.0
28.9774,85.0
29.0478,196.0
29.1181,460.0
29.1885,541.0
29.2588,266.0
29.3292,68.0
29.3995,40.0
29.4699,35.0
29.5403,31.0
29.6106,17.0
29.681,29.0
29.7514,31.0
29.8218,35.0
29.8921,30.0
29.9625,33.0
30.0329,12.0
30.1033,9.0
30.1737,6.0
30.2441,11.0
30.3145,16.0
30.3849,11.0
30.4553,12.0
30.5257,12.0
30.5961,12.0
30.6666,3.0
30.737,8.0
30.8074,8.0
30.8778,7.0
30.9482,1.0
31.0187,10.0
31.0891,7.0
31.1596,6.0
31.23,13.0
31.3004,7.0
31.3709,9.0
31.4413,7.0
31.5118,4.0
31.5823,6.0
31.6527,3.0
31.7232,10.0
31.7937,5.0
31.8641,7.0
31.9346,10.0
32.0051,12.0
32.0756,16.0
32.1461,14.0
32.2166,14.0
32.287,22.0
32.3575,24.0
32.428,13.0
32.4985,9.0
32.5691,10.0
32.6396,14.0
32.7101,21.0
32.7806,43.0
32.8511,43.0
32.9216,47.0
32.9922,39.0
33.0627,24.0
33.1332,25.0
33.2038,20.0
33.2743,20.0
33.3449,24.0
33.4154,23.0
33.486,32.0
33.5565,26.0
33.6271,21.0
33.6977,15.0
33.7682,6.0
33.8388,9.0
33.9094,5.0
33.9799,10.0
34.0505,7.0
34.1211,10.0
34.1917,9.0
34.2623,14.0
34.3329,18.0
34.4035,30.0
34.4741,25.0
34.5447,23.0
34.6153,26.0
34.6859,17.0
34.7566,30.0
34.8272,14.0
34.8978,23.0
34.9684,33.0
35.0391,75.0
35.1097,165.0
35.1804,210.0
35.251,130.0
35.3217,61.0
35.3923,20.0
35.463,12.0
35.5336,12.0
35.6043,8.0
35.675,12.0
35.7457,8.0
35.8163,8.0
35.887,13.0
35.9577,9.0
36.0284,5.0
36.0991,8.0
36.1698,10.0
36.2405,7.0
36.3112,10.0
36.3819,11.0
36.4526,11.0
36.5233,11.0
36.594,12.0
36.6648,14.0
36.7355,15.0
36.8062,20.0
36.877,12.0
36.9477,17.0
37.0185,10.0
37.0892,13.0
37.16,12.0
37.2307,10.0
37.3015,11.0
37.3723,5.0
37.443,9.0
37.5138,10.0
37.5846,16.0
37.6554,13.0
37.7262,15.0
37.7969,17.0
37.8677,14.0
37.9385,12.0
38.0094,16.0
38.0802,22.0
38.151,30.0
38.2218,49.0
38.2926,60.0
38.3634,74.0
38.4343,49.0
38.5051,38.0
38.5759,23.0
38.6468,22.0
38.7176,20.0
38.7885,36.0
38.8593,30.0
38.9302,28.0
39.0011,21.0
39.0719,16.0
39.1428,13.0
39.2137,10.0
39.2846,10.0
39.3555,12.0
39.4264,13.0
39.4972,10.0
39.5681,9.0
39.6391,13.0
39.71,14.0
39.7809,21.0
39.8518,22.0
39.9227,18.0
39.9936,14.0
40.0646,7.0
40.1355,6.0
40.2065,7.0
40.2774,6.0
40.3484,7.0
40.4193,6.0
40.4903,6.0
40.5612,6.0
40.6322,10.0
40.7032,7.0
40.7742,5.0
40.8451,11.0
40.9161,12.0
40.9871,8.0
41.0581,16.0
41.1291,15.0
41.2001,37.0
41.2711,62.0
41.3421,49.0
41.4132,42.0
41.4842,27.0
41.5552,17.0
41.6263,19.0
41.6973,15.0
41.7683,13.0
41.8394,15.0
41.9104,12.0
41.9815,10.0
42.0526,14.0
42.1236,10.0
42.1947,13.0
42.2658,15.0
42.3369,19.0
42.408,15.0
42.4791,12.0
42.5502,16.0
42.6213,9.0
42.6924,16.0
42.7635,17.0
42.8346,13.0
42.9057,14.0
42.9768,11.0
43.048,7.0
43.1191,11.0
43.1903,10.0
43.2614,6.0
43.3326,5.0
43.4037,14.0
43.4749,7.0
43.5461,13.0
43.6172,11.0
43.6884,10.0
43.7596,15.0
43.8308,32.0
43.902,40.0
43.9732,73.0
44.0444,83.0
44.1156,81.0
44.1868,72.0
44.258,47.0
44.3292,41.0
44.4005,33.0
44.4717,35.0
44.543,25.0
44.6142,14.0
44.6855,9.0
44.7567,10.0
44.828,11.0
44.8992,11.0
44.9705,15.0
45.0418,9.0
45.1131,13.0
45.1844,19.0
45.2557,11.0
45.327,15.0
45.3983,20.0
45.4696,26.0
45.5409,22.0
45.6122,15.0
45.6835,13.0
45.7549,14.0
45.8262,10.0
45.8975,10.0
45.9689,12.0
46.0403,12.0
46.1116,8.0
46.183,7.0
46.2543,15.0
46.3257,6.0
46.3971,15.0
46.4685,11.0
46.5399,12.0
46.6113,10.0
46.6827,12.0
46.7541,13.0
46.8255,8.0
46.8969,15.0
46.9684,15.0
47.0398,15.0
47.1112,12.0
47.1827,7.0
47.2541,8.0
47.3256,12.0
47.3971,9.0
47.4685,11.0
47.54,9.0
47.6115,10.0
47.683,12.0
47.7544,10.0
47.8259,12.0
47.8974,9.0
47.969,9.0
48.0405,11.0
48.112,11.0
48.1835,8.0
48.255,9.0
48.3266,9.0
48.3981,7.0
48.4697,9.0
48.5412,9.0
48.6128,9.0
48.6844,8.0
48.7559,6.0
48.8275,12.0
48.8991,5.0
48.9707,12.0
49.0423,14.0
49.1139,16.0
49.1855,8.0
49.2571,12.0
49.3287,10.0
49.4004,9.0
49.472,9.0
49.5436,11.0
49.6153,11.0
49.6869,14.0
49.7586,11.0
49.8303,11.0
49.9019,9.0
49.9736,13.0
50.0453,13.0
50.117,16.0
50.1887,20.0
50.2604,25.0
50.3321,24.0
50.4038,19.0
50.4755,16.0
50.5473,16.0
50.619,9.0
50.6907,14.0
50.7625,15.0
50.8342,13.0
50.906,12.0
50.9778,13.0
51.0495,11.0
51.1213,13.0
51.1931,10.0
51.2649,13.0
51.3367,16.0
51.4085,14.0
51.4803,13.0
51.5521,13.0
51.624,16.0
51.6958,14.0
51.7676,13.0
51.8395,13.0
51.9113,11.0
51.9832,7.0
52.0551,8.0
52.1269,8.0
52.1988,8.0
52.2707,10.0
52.3426,10.0
52.4145,9.0
52.4864,10.0
52.5583,5.0
52.6302,7.0
52.7021,7.0
52.7741,11.0
52.846,11.0
52.918,9.0
52.9899,12.0
53.0619,6.0
53.1338,7.0
53.2058,15.0
53.2778,11.0
53.3498,10.0
53.4218,9.0
53.4938,10.0
53.5658,11.0
53.6378,8.0
53.7098,6.0
53.7818,11.0
53.8539,11.0
53.9259,11.0
53.998,9.0
54.07,12.0
54.1421,11.0
54.2142,15.0
54.2862,15.0
54.3583,17.0
54.4304,18.0
54.5025,21.0
54.5746,18.0
54.6467,13.0
54.7189,9.0
54.791,8.0
54.8631,6.0
54.9353,8.0
55.0074,13.0
55.0796,11.0
55.1518,13.0
55.2239,13.0
55.2961,15.0
55.3683,19.0
55.4405,15.0
55.5127,14.0
55.5849,9.0
55.6571,11.0
55.7293,13.0
55.8016,9.0
55.8738,15.0
55.9461,11.0
56.0183,19.0
56.0906,30.0
56.1628,38.0
56.2351,39.0
56.3074,35.0
56.3797,36.0
56.452,29.0
56.5243,18.0
56.5966,15.0
56.6689,17.0
56.7413,16.0
56.8136,13.0
56.886,13.0
56.9583,11.0
57.0307,18.0
57.103,13.0
57.1754,13.0
57.2478,20.0
57.3202,19.0
57.3926,33.0
57.465,36.0
57.5374,46.0
57.6098,44.0
57.6823,36.0
57.7547,30.0
57.8272,19.0
57.8996,17.0
57.9721,17.0
58.0446,10.0
58.117,19.0
58.1895,9.0
58.262,10.0
58.3345,9.0
58.407,9.0
58.4796,11.0
58.5521,9.0
58.6246,14.0
58.6972,11.0
58.7697,8.0
58.8423,10.0
58.9148,9.0
58.9874,10.0
59.06,12.0
59.1326,9.0
59.2052,13.0
59.2778,13.0
59.3504,12.0
59.4231,13.0
59.4957,14.0
59.5683,12.0
59.641,14.0
59.7136,12.0
59.7863,13.0
59.859,5.0
59.9317,8.0
60.0044,10.0
60.0771,10.0
60.1498,15.0
60.2225,14.0
60.2952,11.0
60.368,16.0
60.4407,14.0
60.5135,16.0
60.5862,14.0
60.659,12.0
60.7318,10.0
60.8046,6.0
60.8774,9.0
60.9502,11.0
61.023,9.0
61.0958,11.0
61.1686,12.0
61.2415,16.0
61.3143,12.0
61.3872,10.0
61.4601,10.0
61.5329,11.0
61.6058,9.0
61.6787,7.0
61.7516,7.0
61.8245,11.0
61.8974,10.0
61.9704,11.0
62.0433,7.0
62.1163,8.0
62.1892,9.0
62.2622,5.0
62.3352,13.0
62.4081,12.0
62.4811,18.0
62.5541,22.0
62.6272,30.0
62.7002,34.0
62.7732,12.0
62.8462,19.0
62.9193,16.0
62.9923,17.0
63.0654,15.0
63.1385,19.0
63.2116,12.0
63.2847,9.0
63.3578,15.0
63.4309,12.0
63.504,8.0
63.5771,11.0
63.6503,13.0
63.7234,14.0
63.7966,11.0
63.8698,8.0
63.943,6.0
64.0161,12.0
64.0893,11.0
64.1625,8.0
64.2358,8.0
64.309,8.0
64.3822,8.0
64.4555,7.0
64.5287,8.0
64.602,6.0
64.6753,5.0
64.7486,8.0
64.8219,8.0
64.8952,8.0
64.9685,10.0
65.0418,10.0
65.1151,11.0
65.1885,13.0
65.2619,12.0
65.3352,13.0
65.4086,6.0
65.482,9.0
65.5554,13.0
65.6288,6.0
65.7022,10.0
65.7756,13.0
65.8491,12.0
65.9225,11.0
65.996,10.0
66.0694,12.0
66.1429,18.0
66.2164,21.0
66.2899,15.0
66.3634,18.0
66.4369,13.0
66.5104,9.0
66.584,13.0
66.6575,8.0
66.7311,7.0
66.8047,12.0
66.8782,12.0
66.9518,5.0
67.0254,11.0
67.099,10.0
67.1727,12.0
67.2463,13.0
67.3199,9.0
67.3936,11.0
67.4673,9.0
67.5409,10.0
67.6146,8.0
67.6883,8.0
67.762,11.0
67.8357,7.0
67.9095,6.0
67.9832,7.0
68.057,10.0
68.1307,7.0
68.2045,6.0
68.2783,10.0
68.3521,10.0
68.4259,10.0
68.4997,8.0
68.5735,16.0
68.6473,12.0
68.7212,9.0
68.7951,8.0
68.8689,12.0
68.9428,10.0
69.0167,12.0
69.0906,9.0
69.1645,21.0
69.2384,16.0
69.3124,19.0
69.3863,16.0
69.4603,14.0
69.5343,14.0
69.6082,11.0
69.6822,10.0
69.7562,10.0
69.8303,10.0
69.9043,11.0
69.9783,5.0
70.0524,7.0
70.1264,8.0
70.2005,7.0
70.2746,10.0
70.3487,9.0
70.4228,6.0
70.4969,14.0
70.5711,12.0
70.6452,11.0
70.7194,18.0
70.7935,10.0
70.8677,16.0
70.9419,7.0
71.0161,12.0
71.0903,10.0
71.1646,6.0
71.2388,7.0
71.313,11.0
71.3873,11.0
71.4616,5.0
71.5359,6.0
71.6102,8.0
71.6845,7.0
71.7588,8.0
71.8331,9.0
71.9075,12.0
71.9818,9.0
72.0562,13.0
72.1306,10.0
72.205,8.0
72.2794,9.0
72.3538,10.0
72.4283,10.0
72.5027,12.0
72.5772,13.0
72.6516,12.0
72.7261,7.0
72.8006,7.0
72.8751,7.0
72.9497,10.0
73.0242,8.0
73.0987,12.0
73.1733,8.0
73.2479,8.0
73.3224,8.0
73.397,2.0
73.4717,9.0
73.5463,7.0
73.6209,5.0
73.6956,8.0
73.7702,9.0
73.8449,13.0
73.9196,9.0
73.9943,7.0
74.069,7.0
74.1437,13.0
74.2185,9.0
74.2932,10.0
74.368,16.0
74.4428,9.0
74.5176,8.0
74.5924,10.0
74.6672,10.0
74.742,12.0
74.8169,8.0
74.8917,6.0
74.9666,5.0
75.0415,9.0
75.1164,9.0
75.1913,14.0
75.2662,5.0
75.3412,10.0
75.4161,12.0
75.4911,12.0
75.5661,11.0
75.6411,5.0
75.7161,9.0
75.7911,6.0
75.8661,2.0
75.9412,7.0
76.0162,11.0
76.0913,4.0
76.1664,9.0
76.2415,11.0
76.3166,10.0
76.3918,16.0
76.4669,12.0
76.5421,10.0
76.6172,8.0
76.6924,13.0
76.7676,9.0
76.8428,10.0
76.9181,7.0
76.9933,8.0
77.0686,2.0
77.1439,7.0
77.2192,9.0
77.2945,5.0
77.3698,13.0
77.4451,9.0
77.5205,12.0
77.5958,7.0
77.6712,9.0
77.7466,8.0
77.822,8.0
77.8974,6.0
77.9728,11.0
78.0483,10.0
78.1238,8.0
78.1992,11.0
78.2747,5.0
78.3502,8.0
78.4258,13.0
78.5013,11.0
78.5769,10.0
78.6524,10.0
78.728,11.0
78.8036,2.0
78.8792,8.0
78.9549,5.0
79.0305,6.0
79.1062,10.0
79.1818,5.0
79.2575,7.0
79.3332,3.0
79.409,11.0
79.4847,11.0
79.5604,10.0
79.6362,8.0
79.712,5.0
79.7878,7.0
79.8636,10.0
79.9394,11.0
80.0153,9.0
80.0912,8.0
80.167,7.0
80.2429,7.0
80.3188,8.0
80.3948,4.0
80.4707,5.0
80.5467,9.0
80.6226,6.0
80.6986,4.0
80.7746,9.0
80.8507,9.0
80.9267,16.0
81.0028,12.0
81.0788,18.0
81.1549,7.0
81.231,7.0
81.3071,12.0
81.3833,8.0
81.4594,6.0
81.5356,7.0
81.6118,3.0
81.688,6.0
81.7642,11.0
81.8404,12.0
81.9167,16.0
81.993,9.0
82.0693,9.0
82.1456,14.0
82.2219,12.0
82.2982,9.0
82.3746,6.0
82.4509,6.0
82.5273,7.0
82.6037,5.0
82.6802,4.0
82.7566,8.0
82.8331,9.0
82.9095,16.0
82.986,7.0
83.0625,2.0
83.1391,6.0
83.2156,8.0
83.2922,10.0
83.3687,9.0
83.4453,8.0
83.522,6.0
83.5986,6.0
83.6241,9.0