File: data/xrd/xy/n-Hexylammonium_Iodide.lbl_rescaled.xy
# Processed xy data with Haverford two-theta converted to LBL scale
two_theta,intensity
5.81234,4.0
5.8821,4.0
5.95186,6.0
6.02163,8.0
6.0914,10.0
6.16116,4.0
6.23093,13.0
6.3007,17.0
6.37046,21.0
6.44023,20.0
6.51,20.0
6.57977,13.0
6.64954,18.0
6.71931,17.0
6.78908,12.0
6.85886,7.0
6.92863,6.0
6.9984,2.0
7.06818,2.0
7.13795,5.0
7.20773,2.0
7.27751,3.0
7.34728,5.0
7.41706,1.0
7.48684,4.0
7.55662,2.0
7.6264,1.0
7.69618,2.0
7.76596,4.0
7.83574,5.0
7.90553,4.0
7.97531,1.0
8.0451,4.0
8.11488,3.0
8.18467,3.0
8.25445,1.0
8.32424,1.0
8.39403,1.0
8.46382,2.0
8.53361,2.0
8.6034,3.0
8.67319,4.0
8.74299,3.0
8.81278,4.0
8.88257,0.0
8.95237,1.0
9.02217,4.0
9.09196,4.0
9.16176,3.0
9.23156,3.0
9.30136,0.0
9.37116,1.0
9.44096,4.0
9.51076,4.0
9.58057,3.0
9.65037,3.0
9.72018,1.0
9.78998,6.0
9.85979,3.0
9.9296,6.0
9.99941,5.0
10.0692,4.0
10.139,6.0
10.2088,6.0
10.2787,4.0
10.3485,5.0
10.4183,3.0
10.4881,4.0
10.5579,4.0
10.6277,4.0
10.6976,5.0
10.7674,6.0
10.8372,5.0
10.907,6.0
10.9768,5.0
11.0467,6.0
11.1165,5.0
11.1863,0.0
11.2561,1.0
11.326,3.0
11.3958,4.0
11.4656,2.0
11.5355,2.0
11.6053,1.0
11.6751,2.0
11.745,2.0
11.8148,4.0
11.8846,5.0
11.9545,1.0
12.0243,1.0
12.0942,3.0
12.164,3.0
12.2338,1.0
12.3037,1.0
12.3735,2.0
12.4434,2.0
12.5132,2.0
12.5831,2.0
12.6529,1.0
12.7228,3.0
12.7926,4.0
12.8625,3.0
12.9324,2.0
13.0022,1.0
13.0721,2.0
13.1419,3.0
13.2118,0.0
13.2817,1.0
13.3515,3.0
13.4214,5.0
13.4912,2.0
13.5611,5.0
13.631,0.0
13.7009,0.0
13.7707,4.0
13.8406,1.0
13.9105,3.0
13.9803,4.0
14.0502,2.0
14.1201,0.0
14.19,0.0
14.2599,0.0
14.3297,3.0
14.3996,2.0
14.4695,3.0
14.5394,0.0
14.6093,5.0
14.6792,4.0
14.7491,2.0
14.819,2.0
14.8889,1.0
14.9588,4.0
15.0287,2.0
15.0985,3.0
15.1684,2.0
15.2384,0.0
15.3083,1.0
15.3782,4.0
15.4481,5.0
15.518,1.0
15.5879,3.0
15.6578,4.0
15.7277,3.0
15.7976,2.0
15.8675,2.0
15.9374,5.0
16.0074,5.0
16.0773,4.0
16.1472,2.0
16.2171,3.0
16.2871,3.0
16.357,5.0
16.4269,5.0
16.4968,2.0
16.5668,3.0
16.6367,2.0
16.7066,1.0
16.7766,4.0
16.8465,5.0
16.9165,8.0
16.9864,1.0
17.0563,3.0
17.1263,5.0
17.1962,4.0
17.2662,2.0
17.3361,4.0
17.4061,3.0
17.476,4.0
17.546,4.0
17.6159,5.0
17.6859,3.0
17.7559,7.0
17.8258,3.0
17.8958,2.0
17.9658,2.0
18.0357,2.0
18.1057,7.0
18.1757,0.0
18.2456,2.0
18.3156,2.0
18.3856,5.0
18.4556,4.0
18.5255,6.0
18.5955,4.0
18.6655,4.0
18.7355,4.0
18.8055,2.0
18.8755,6.0
18.9455,11.0
19.0155,11.0
19.0854,12.0
19.1554,11.0
19.2254,17.0
19.2954,23.0
19.3654,31.0
19.4354,29.0
19.5055,30.0
19.5755,17.0
19.6455,16.0
19.7155,14.0
19.7855,13.0
19.8555,16.0
19.9255,10.0
19.9956,6.0
20.0656,8.0
20.1356,7.0
20.2056,9.0
20.2757,3.0
20.3457,5.0
20.4157,2.0
20.4858,5.0
20.5558,1.0
20.6258,6.0
20.6959,6.0
20.7659,13.0
20.836,13.0
20.906,14.0
20.9761,35.0
21.0461,42.0
21.1162,38.0
21.1862,44.0
21.2563,32.0
21.3263,18.0
21.3964,17.0
21.4665,24.0
21.5365,30.0
21.6066,33.0
21.6767,21.0
21.7467,29.0
21.8168,23.0
21.8869,12.0
21.957,18.0
22.027,16.0
22.0971,14.0
22.1672,9.0
22.2373,15.0
22.3074,17.0
22.3775,13.0
22.4476,18.0
22.5177,8.0
22.5878,14.0
22.6579,11.0
22.728,14.0
22.7981,17.0
22.8682,6.0
22.9383,16.0
23.0084,12.0
23.0785,14.0
23.1487,9.0
23.2188,9.0
23.2889,5.0
23.359,7.0
23.4292,3.0
23.4993,10.0
23.5694,10.0
23.6395,7.0
23.7097,5.0
23.7798,7.0
23.85,5.0
23.9201,3.0
23.9903,8.0
24.0604,8.0
24.1306,9.0
24.2007,4.0
24.2709,8.0
24.341,6.0
24.4112,9.0
24.4814,9.0
24.5515,10.0
24.6217,6.0
24.6919,6.0
24.762,10.0
24.8322,15.0
24.9024,15.0
24.9726,14.0
25.0428,12.0
25.1129,16.0
25.1831,31.0
25.2533,24.0
25.3235,28.0
25.3937,30.0
25.4639,43.0
25.5341,33.0
25.6043,49.0
25.6745,41.0
25.7447,62.0
25.815,84.0
25.8852,174.0
25.9554,180.0
26.0256,189.0
26.0958,175.0
26.1661,100.0
26.2363,72.0
26.3065,55.0
26.3768,68.0
26.447,84.0
26.5172,65.0
26.5875,78.0
26.6577,69.0
26.728,46.0
26.7982,40.0
26.8685,31.0
26.9387,37.0
27.009,38.0
27.0793,42.0
27.1495,45.0
27.2198,32.0
27.2901,32.0
27.3603,20.0
27.4306,17.0
27.5009,15.0
27.5712,20.0
27.6415,21.0
27.7117,15.0
27.782,25.0
27.8523,27.0
27.9226,28.0
27.9929,35.0
28.0632,23.0
28.1335,27.0
28.2038,22.0
28.2742,36.0
28.3445,39.0
28.4148,38.0
28.4851,31.0
28.5554,40.0
28.6258,26.0
28.6961,24.0
28.7664,29.0
28.8368,37.0
28.9071,32.0
28.9774,30.0
29.0478,28.0
29.1181,28.0
29.1885,22.0
29.2588,30.0
29.3292,19.0
29.3995,27.0
29.4699,25.0
29.5403,26.0
29.6106,15.0
29.681,27.0
29.7514,14.0
29.8218,18.0
29.8921,13.0
29.9625,15.0
30.0329,13.0
30.1033,15.0
30.1737,12.0
30.2441,16.0
30.3145,10.0
30.3849,12.0
30.4553,6.0
30.5257,10.0
30.5961,10.0
30.6666,13.0
30.737,12.0
30.8074,13.0
30.8778,11.0
30.9482,9.0
31.0187,14.0
31.0891,11.0
31.1596,10.0
31.23,6.0
31.3004,20.0
31.3709,13.0
31.4413,12.0
31.5118,14.0
31.5823,16.0
31.6527,19.0
31.7232,34.0
31.7937,26.0
31.8641,31.0
31.9346,36.0
32.0051,62.0
32.0756,67.0
32.1461,50.0
32.2166,46.0
32.287,38.0
32.3575,37.0
32.428,31.0
32.4985,31.0
32.5691,42.0
32.6396,34.0
32.7101,47.0
32.7806,41.0
32.8511,29.0
32.9216,27.0
32.9922,18.0
33.0627,15.0
33.1332,14.0
33.2038,15.0
33.2743,12.0
33.3449,17.0
33.4154,12.0
33.486,10.0
33.5565,12.0
33.6271,9.0
33.6977,12.0
33.7682,17.0
33.8388,18.0
33.9094,5.0
33.9799,10.0
34.0505,9.0
34.1211,6.0
34.1917,10.0
34.2623,13.0
34.3329,4.0
34.4035,12.0
34.4741,11.0
34.5447,12.0
34.6153,7.0
34.6859,7.0
34.7566,6.0
34.8272,12.0
34.8978,12.0
34.9684,7.0
35.0391,9.0
35.1097,11.0
35.1804,11.0
35.251,12.0
35.3217,12.0
35.3923,19.0
35.463,11.0
35.5336,11.0
35.6043,9.0
35.675,15.0
35.7457,11.0
35.8163,14.0
35.887,13.0
35.9577,16.0
36.0284,11.0
36.0991,10.0
36.1698,8.0
36.2405,12.0
36.3112,10.0
36.3819,9.0
36.4526,9.0
36.5233,9.0
36.594,10.0
36.6648,12.0
36.7355,11.0
36.8062,12.0
36.877,14.0
36.9477,9.0
37.0185,13.0
37.0892,19.0
37.16,10.0
37.2307,6.0
37.3015,7.0
37.3723,16.0
37.443,22.0
37.5138,25.0
37.5846,26.0
37.6554,30.0
37.7262,30.0
37.7969,22.0
37.8677,18.0
37.9385,20.0
38.0094,21.0
38.0802,20.0
38.151,11.0
38.2218,15.0
38.2926,9.0
38.3634,15.0
38.4343,7.0
38.5051,8.0
38.5759,16.0
38.6468,9.0
38.7176,10.0
38.7885,13.0
38.8593,16.0
38.9302,18.0
39.0011,22.0
39.0719,17.0
39.1428,15.0
39.2137,19.0
39.2846,19.0
39.3555,22.0
39.4264,21.0
39.4972,20.0
39.5681,19.0
39.6391,19.0
39.71,18.0
39.7809,21.0
39.8518,20.0
39.9227,18.0
39.9936,21.0
40.0646,17.0
40.1355,28.0
40.2065,19.0
40.2774,22.0
40.3484,27.0
40.4193,20.0
40.4903,22.0
40.5612,19.0
40.6322,11.0
40.7032,13.0
40.7742,17.0
40.8451,17.0
40.9161,13.0
40.9871,15.0
41.0581,10.0
41.1291,9.0
41.2001,15.0
41.2711,13.0
41.3421,14.0
41.4132,14.0
41.4842,13.0
41.5552,15.0
41.6263,14.0
41.6973,10.0
41.7683,18.0
41.8394,10.0
41.9104,8.0
41.9815,13.0
42.0526,13.0
42.1236,9.0
42.1947,10.0
42.2658,11.0
42.3369,17.0
42.408,9.0
42.4791,15.0
42.5502,15.0
42.6213,17.0
42.6924,13.0
42.7635,18.0
42.8346,13.0
42.9057,21.0
42.9768,23.0
43.048,26.0
43.1191,34.0
43.1903,27.0
43.2614,27.0
43.3326,29.0
43.4037,29.0
43.4749,24.0
43.5461,24.0
43.6172,20.0
43.6884,19.0
43.7596,14.0
43.8308,13.0
43.902,11.0
43.9732,14.0
44.0444,10.0
44.1156,12.0
44.1868,13.0
44.258,12.0
44.3292,9.0
44.4005,18.0
44.4717,8.0
44.543,5.0
44.6142,10.0
44.6855,13.0
44.7567,8.0
44.828,12.0
44.8992,8.0
44.9705,9.0
45.0418,8.0
45.1131,14.0
45.1844,15.0
45.2557,13.0
45.327,13.0
45.3983,12.0
45.4696,10.0
45.5409,13.0
45.6122,17.0
45.6835,15.0
45.7549,15.0
45.8262,17.0
45.8975,18.0
45.9689,16.0
46.0403,12.0
46.1116,15.0
46.183,16.0
46.2543,19.0
46.3257,22.0
46.3971,12.0
46.4685,20.0
46.5399,20.0
46.6113,16.0
46.6827,14.0
46.7541,12.0
46.8255,16.0
46.8969,12.0
46.9684,12.0
47.0398,16.0
47.1112,10.0
47.1827,11.0
47.2541,14.0
47.3256,16.0
47.3971,15.0
47.4685,13.0
47.54,17.0
47.6115,24.0
47.683,21.0
47.7544,20.0
47.8259,22.0
47.8974,30.0
47.969,27.0
48.0405,28.0
48.112,34.0
48.1835,26.0
48.255,24.0
48.3266,20.0
48.3981,15.0
48.4697,19.0
48.5412,17.0
48.6128,20.0
48.6844,21.0
48.7559,17.0
48.8275,20.0
48.8991,17.0
48.9707,21.0
49.0423,15.0
49.1139,13.0
49.1855,14.0
49.2571,16.0
49.3287,15.0
49.4004,10.0
49.472,16.0
49.5436,20.0
49.6153,11.0
49.6869,9.0
49.7586,10.0
49.8303,12.0
49.9019,12.0
49.9736,12.0
50.0453,13.0
50.117,16.0
50.1887,20.0
50.2604,19.0
50.3321,10.0
50.4038,17.0
50.4755,19.0
50.5473,16.0
50.619,18.0
50.6907,10.0
50.7625,15.0
50.8342,18.0
50.906,9.0
50.9778,10.0
51.0495,13.0
51.1213,7.0
51.1931,11.0
51.2649,12.0
51.3367,11.0
51.4085,13.0
51.4803,9.0
51.5521,9.0
51.624,11.0
51.6958,13.0
51.7676,7.0
51.8395,11.0
51.9113,12.0
51.9832,11.0
52.0551,11.0
52.1269,16.0
52.1988,15.0
52.2707,17.0
52.3426,16.0
52.4145,13.0
52.4864,15.0
52.5583,15.0
52.6302,10.0
52.7021,19.0
52.7741,13.0
52.846,14.0
52.918,12.0
52.9899,15.0
53.0619,15.0
53.1338,15.0
53.2058,15.0
53.2778,12.0
53.3498,16.0
53.4218,16.0
53.4938,15.0
53.5658,10.0
53.6378,13.0
53.7098,17.0
53.7818,15.0
53.8539,11.0
53.9259,9.0
53.998,10.0
54.07,11.0
54.1421,8.0
54.2142,9.0
54.2862,8.0
54.3583,11.0
54.4304,13.0
54.5025,11.0
54.5746,8.0
54.6467,11.0
54.7189,13.0
54.791,13.0
54.8631,12.0
54.9353,11.0
55.0074,7.0
55.0796,12.0
55.1518,12.0
55.2239,10.0
55.2961,10.0
55.3683,12.0
55.4405,10.0
55.5127,9.0
55.5849,8.0
55.6571,4.0
55.7293,9.0
55.8016,11.0
55.8738,11.0
55.9461,11.0
56.0183,9.0
56.0906,11.0
56.1628,14.0
56.2351,5.0
56.3074,8.0
56.3797,9.0
56.452,10.0
56.5243,6.0
56.5966,12.0
56.6689,10.0
56.7413,10.0
56.8136,10.0
56.886,7.0
56.9583,8.0
57.0307,14.0
57.103,11.0
57.1754,8.0
57.2478,10.0
57.3202,7.0
57.3926,13.0
57.465,11.0
57.5374,9.0
57.6098,13.0
57.6823,12.0
57.7547,12.0
57.8272,11.0
57.8996,14.0
57.9721,15.0
58.0446,14.0
58.117,18.0
58.1895,12.0
58.262,16.0
58.3345,14.0
58.407,8.0
58.4796,16.0
58.5521,12.0
58.6246,9.0
58.6972,16.0
58.7697,12.0
58.8423,10.0
58.9148,12.0
58.9874,12.0
59.06,12.0
59.1326,9.0
59.2052,11.0
59.2778,11.0
59.3504,15.0
59.4231,16.0
59.4957,13.0
59.5683,14.0
59.641,10.0
59.7136,15.0
59.7863,12.0
59.859,9.0
59.9317,12.0
60.0044,11.0
60.0771,14.0
60.1498,13.0
60.2225,9.0
60.2952,13.0
60.368,13.0
60.4407,11.0
60.5135,12.0
60.5862,11.0
60.659,10.0
60.7318,9.0
60.8046,12.0
60.8774,20.0
60.9502,16.0
61.023,10.0
61.0958,11.0
61.1686,16.0
61.2415,10.0
61.3143,8.0
61.3872,9.0
61.4601,14.0
61.5329,10.0
61.6058,11.0
61.6787,13.0
61.7516,12.0
61.8245,13.0
61.8974,10.0
61.9704,14.0
62.0433,16.0
62.1163,11.0
62.1892,11.0
62.2622,11.0
62.3352,9.0
62.4081,10.0
62.4811,15.0
62.5541,19.0
62.6272,9.0
62.7002,14.0
62.7732,13.0
62.8462,13.0
62.9193,11.0
62.9923,13.0
63.0654,10.0
63.1385,11.0
63.2116,17.0
63.2847,18.0
63.3578,10.0
63.4309,12.0
63.504,8.0
63.5771,12.0
63.6503,9.0
63.7234,12.0
63.7966,13.0
63.8698,12.0
63.943,11.0
64.0161,13.0
64.0893,14.0
64.1625,18.0
64.2358,12.0
64.309,14.0
64.3822,14.0
64.4555,11.0
64.5287,13.0
64.602,16.0
64.6753,13.0
64.7486,16.0
64.8219,15.0
64.8952,11.0
64.9685,11.0
65.0418,9.0
65.1151,9.0
65.1885,12.0
65.2619,15.0
65.3352,17.0
65.4086,18.0
65.482,14.0
65.5554,17.0
65.6288,19.0
65.7022,17.0
65.7756,13.0
65.8491,19.0
65.9225,20.0
65.996,14.0
66.0694,14.0
66.1429,15.0
66.2164,15.0
66.2899,20.0
66.3634,11.0
66.4369,10.0
66.5104,14.0
66.584,16.0
66.6575,14.0
66.7311,12.0
66.8047,13.0
66.8782,13.0
66.9518,11.0
67.0254,12.0
67.099,11.0
67.1727,9.0
67.2463,12.0
67.3199,9.0
67.3936,16.0
67.4673,13.0
67.5409,14.0
67.6146,12.0
67.6883,10.0
67.762,18.0
67.8357,12.0
67.9095,10.0
67.9832,12.0
68.057,13.0
68.1307,16.0
68.2045,17.0
68.2783,13.0
68.3521,13.0
68.4259,10.0
68.4997,15.0
68.5735,12.0
68.6473,12.0
68.7212,12.0
68.7951,12.0
68.8689,10.0
68.9428,11.0
69.0167,11.0
69.0906,9.0
69.1645,12.0
69.2384,7.0
69.3124,16.0
69.3863,15.0
69.4603,18.0
69.5343,12.0
69.6082,11.0
69.6822,10.0
69.7562,10.0
69.8303,11.0
69.9043,14.0
69.9783,13.0
70.0524,11.0
70.1264,10.0
70.2005,13.0
70.2746,10.0
70.3487,10.0
70.4228,15.0
70.4969,5.0
70.5711,10.0
70.6452,12.0
70.7194,9.0
70.7935,9.0
70.8677,15.0
70.9419,13.0
71.0161,10.0
71.0903,13.0
71.1646,20.0
71.2388,10.0
71.313,19.0
71.3873,10.0
71.4616,17.0
71.5359,7.0
71.6102,10.0
71.6845,10.0
71.7588,9.0
71.8331,13.0
71.9075,10.0
71.9818,11.0
72.0562,12.0
72.1306,12.0
72.205,7.0
72.2794,8.0
72.3538,13.0
72.4283,11.0
72.5027,8.0
72.5772,11.0
72.6516,14.0
72.7261,12.0
72.8006,11.0
72.8751,12.0
72.9497,8.0
73.0242,8.0
73.0987,9.0
73.1733,11.0
73.2479,11.0
73.3224,13.0
73.397,9.0
73.4717,16.0
73.5463,6.0
73.6209,6.0
73.6956,15.0
73.7702,12.0
73.8449,12.0
73.9196,12.0
73.9943,8.0
74.069,14.0
74.1437,15.0
74.2185,12.0
74.2932,8.0
74.368,9.0
74.4428,13.0
74.5176,11.0
74.5924,11.0
74.6672,12.0
74.742,12.0
74.8169,9.0
74.8917,11.0
74.9666,16.0
75.0415,10.0
75.1164,13.0
75.1913,11.0
75.2662,10.0
75.3412,16.0
75.4161,10.0
75.4911,13.0
75.5661,6.0
75.6411,10.0
75.7161,13.0
75.7911,16.0
75.8661,6.0
75.9412,9.0
76.0162,14.0
76.0913,10.0
76.1664,11.0
76.2415,2.0
76.3166,12.0
76.3918,12.0
76.4669,9.0
76.5421,8.0
76.6172,12.0
76.6924,12.0
76.7676,9.0
76.8428,9.0
76.9181,12.0
76.9933,12.0
77.0686,11.0
77.1439,11.0
77.2192,10.0
77.2945,14.0
77.3698,11.0
77.4451,13.0
77.5205,13.0
77.5958,14.0
77.6712,16.0
77.7466,3.0
77.822,8.0
77.8974,13.0
77.9728,13.0
78.0483,13.0
78.1238,13.0
78.1992,16.0
78.2747,8.0
78.3502,14.0
78.4258,15.0
78.5013,10.0
78.5769,10.0
78.6524,8.0
78.728,7.0
78.8036,9.0
78.8792,13.0
78.9549,12.0
79.0305,12.0
79.1062,7.0
79.1818,7.0
79.2575,7.0
79.3332,9.0
79.409,9.0
79.4847,14.0
79.5604,8.0
79.6362,9.0
79.712,5.0
79.7878,9.0
79.8636,11.0
79.9394,13.0
80.0153,4.0
80.0912,9.0
80.167,10.0
80.2429,10.0
80.3188,13.0
80.3948,8.0
80.4707,2.0
80.5467,11.0
80.6226,14.0
80.6986,3.0
80.7746,4.0
80.8507,5.0
80.9267,7.0
81.0028,6.0
81.0788,9.0
81.1549,10.0
81.231,5.0
81.3071,10.0
81.3833,9.0
81.4594,9.0
81.5356,7.0
81.6118,14.0
81.688,13.0
81.7642,8.0
81.8404,8.0
81.9167,12.0
81.993,5.0
82.0693,7.0
82.1456,9.0
82.2219,3.0
82.2982,15.0
82.3746,9.0
82.4509,11.0
82.5273,8.0
82.6037,8.0
82.6802,12.0
82.7566,16.0
82.8331,11.0
82.9095,7.0
82.986,7.0
83.0625,9.0
83.1391,11.0
83.2156,7.0
83.2922,9.0
83.3687,9.0
83.4453,5.0
83.522,7.0
83.5986,5.0
83.6241,8.0