File: data/xrd/xy/Pbi_DMSO.lbl_rescaled.xy
# Processed xy data with Haverford two-theta converted to LBL scale
two_theta,intensity
5.81234,5.0
5.8821,5.0
5.95186,6.0
6.02163,8.0
6.0914,7.0
6.16116,5.0
6.23093,8.0
6.3007,7.0
6.37046,6.0
6.44023,6.0
6.51,5.0
6.57977,5.0
6.64954,3.0
6.71931,5.0
6.78908,6.0
6.85886,8.0
6.92863,3.0
6.9984,9.0
7.06818,6.0
7.13795,3.0
7.20773,7.0
7.27751,1.0
7.34728,5.0
7.41706,7.0
7.48684,5.0
7.55662,4.0
7.6264,5.0
7.69618,4.0
7.76596,4.0
7.83574,4.0
7.90553,4.0
7.97531,8.0
8.0451,7.0
8.11488,4.0
8.18467,6.0
8.25445,6.0
8.32424,8.0
8.39403,5.0
8.46382,5.0
8.53361,5.0
8.6034,4.0
8.67319,5.0
8.74299,7.0
8.81278,4.0
8.88257,6.0
8.95237,3.0
9.02217,5.0
9.09196,4.0
9.16176,5.0
9.23156,6.0
9.30136,2.0
9.37116,2.0
9.44096,9.0
9.51076,6.0
9.58057,6.0
9.65037,1.0
9.72018,3.0
9.78998,4.0
9.85979,2.0
9.9296,6.0
9.99941,5.0
10.0692,9.0
10.139,5.0
10.2088,8.0
10.2787,7.0
10.3485,5.0
10.4183,6.0
10.4881,5.0
10.5579,8.0
10.6277,13.0
10.6976,5.0
10.7674,6.0
10.8372,6.0
10.907,5.0
10.9768,3.0
11.0467,9.0
11.1165,7.0
11.1863,5.0
11.2561,13.0
11.326,25.0
11.3958,20.0
11.4656,33.0
11.5355,84.0
11.6053,92.0
11.6751,156.0
11.745,484.0
11.8148,1259.0
11.8846,1834.0
11.9545,1035.0
12.0243,184.0
12.0942,27.0
12.164,26.0
12.2338,11.0
12.3037,11.0
12.3735,4.0
12.4434,6.0
12.5132,5.0
12.5831,7.0
12.6529,5.0
12.7228,3.0
12.7926,5.0
12.8625,5.0
12.9324,5.0
13.0022,3.0
13.0721,7.0
13.1419,3.0
13.2118,4.0
13.2817,3.0
13.3515,6.0
13.4214,5.0
13.4912,5.0
13.5611,5.0
13.631,6.0
13.7009,7.0
13.7707,2.0
13.8406,2.0
13.9105,5.0
13.9803,2.0
14.0502,11.0
14.1201,5.0
14.19,7.0
14.2599,13.0
14.3297,16.0
14.3996,15.0
14.4695,18.0
14.5394,26.0
14.6093,36.0
14.6792,39.0
14.7491,155.0
14.819,537.0
14.8889,594.0
14.9588,124.0
15.0287,18.0
15.0985,10.0
15.1684,7.0
15.2384,7.0
15.3083,3.0
15.3782,3.0
15.4481,4.0
15.518,2.0
15.5879,3.0
15.6578,8.0
15.7277,4.0
15.7976,7.0
15.8675,4.0
15.9374,0.0
16.0074,2.0
16.0773,1.0
16.1472,4.0
16.2171,3.0
16.2871,6.0
16.357,5.0
16.4269,3.0
16.4968,3.0
16.5668,6.0
16.6367,3.0
16.7066,6.0
16.7766,8.0
16.8465,5.0
16.9165,7.0
16.9864,10.0
17.0563,1.0
17.1263,4.0
17.1962,6.0
17.2662,5.0
17.3361,1.0
17.4061,2.0
17.476,2.0
17.546,7.0
17.6159,3.0
17.6859,7.0
17.7559,4.0
17.8258,1.0
17.8958,4.0
17.9658,6.0
18.0357,7.0
18.1057,1.0
18.1757,7.0
18.2456,7.0
18.3156,2.0
18.3856,7.0
18.4556,4.0
18.5255,8.0
18.5955,3.0
18.6655,8.0
18.7355,4.0
18.8055,3.0
18.8755,5.0
18.9455,4.0
19.0155,4.0
19.0854,0.0
19.1554,4.0
19.2254,4.0
19.2954,5.0
19.3654,5.0
19.4354,8.0
19.5055,5.0
19.5755,4.0
19.6455,5.0
19.7155,8.0
19.7855,3.0
19.8555,3.0
19.9255,3.0
19.9956,5.0
20.0656,1.0
20.1356,5.0
20.2056,4.0
20.2757,4.0
20.3457,6.0
20.4157,2.0
20.4858,2.0
20.5558,6.0
20.6258,2.0
20.6959,6.0
20.7659,4.0
20.836,5.0
20.906,6.0
20.9761,7.0
21.0461,5.0
21.1162,3.0
21.1862,4.0
21.2563,2.0
21.3263,5.0
21.3964,2.0
21.4665,6.0
21.5365,7.0
21.6066,6.0
21.6767,3.0
21.7467,2.0
21.8168,2.0
21.8869,8.0
21.957,6.0
22.027,6.0
22.0971,1.0
22.1672,6.0
22.2373,6.0
22.3074,5.0
22.3775,5.0
22.4476,4.0
22.5177,6.0
22.5878,5.0
22.6579,5.0
22.728,6.0
22.7981,10.0
22.8682,15.0
22.9383,11.0
23.0084,8.0
23.0785,15.0
23.1487,16.0
23.2188,9.0
23.2889,3.0
23.359,4.0
23.4292,6.0
23.4993,5.0
23.5694,10.0
23.6395,8.0
23.7097,11.0
23.7798,18.0
23.85,57.0
23.9201,110.0
23.9903,79.0
24.0604,31.0
24.1306,48.0
24.2007,108.0
24.2709,115.0
24.341,58.0
24.4112,17.0
24.4814,9.0
24.5515,10.0
24.6217,5.0
24.6919,8.0
24.762,6.0
24.8322,11.0
24.9024,4.0
24.9726,5.0
25.0428,7.0
25.1129,7.0
25.1831,1.0
25.2533,2.0
25.3235,6.0
25.3937,4.0
25.4639,9.0
25.5341,5.0
25.6043,12.0
25.6745,20.0
25.7447,42.0
25.815,50.0
25.8852,24.0
25.9554,11.0
26.0256,4.0
26.0958,4.0
26.1661,5.0
26.2363,6.0
26.3065,3.0
26.3768,4.0
26.447,6.0
26.5172,4.0
26.5875,5.0
26.6577,5.0
26.728,4.0
26.7982,6.0
26.8685,3.0
26.9387,5.0
27.009,3.0
27.0793,6.0
27.1495,6.0
27.2198,6.0
27.2901,7.0
27.3603,14.0
27.4306,11.0
27.5009,5.0
27.5712,8.0
27.6415,8.0
27.7117,4.0
27.782,3.0
27.8523,6.0
27.9226,6.0
27.9929,8.0
28.0632,6.0
28.1335,3.0
28.2038,6.0
28.2742,5.0
28.3445,5.0
28.4148,2.0
28.4851,8.0
28.5554,4.0
28.6258,4.0
28.6961,2.0
28.7664,7.0
28.8368,4.0
28.9071,3.0
28.9774,6.0
29.0478,2.0
29.1181,6.0
29.1885,5.0
29.2588,17.0
29.3292,10.0
29.3995,22.0
29.4699,35.0
29.5403,113.0
29.6106,147.0
29.681,115.0
29.7514,89.0
29.8218,169.0
29.8921,281.0
29.9625,322.0
30.0329,184.0
30.1033,68.0
30.1737,20.0
30.2441,13.0
30.3145,12.0
30.3849,3.0
30.4553,9.0
30.5257,4.0
30.5961,11.0
30.6666,11.0
30.737,8.0
30.8074,5.0
30.8778,5.0
30.9482,6.0
31.0187,5.0
31.0891,4.0
31.1596,6.0
31.23,5.0
31.3004,5.0
31.3709,7.0
31.4413,7.0
31.5118,12.0
31.5823,7.0
31.6527,9.0
31.7232,7.0
31.7937,8.0
31.8641,4.0
31.9346,3.0
32.0051,5.0
32.0756,2.0
32.1461,7.0
32.2166,6.0
32.287,7.0
32.3575,3.0
32.428,7.0
32.4985,2.0
32.5691,2.0
32.6396,8.0
32.7101,5.0
32.7806,6.0
32.8511,10.0
32.9216,6.0
32.9922,10.0
33.0627,14.0
33.1332,26.0
33.2038,62.0
33.2743,140.0
33.3449,139.0
33.4154,58.0
33.486,35.0
33.5565,22.0
33.6271,19.0
33.6977,7.0
33.7682,4.0
33.8388,9.0
33.9094,12.0
33.9799,6.0
34.0505,10.0
34.1211,6.0
34.1917,7.0
34.2623,6.0
34.3329,7.0
34.4035,5.0
34.4741,6.0
34.5447,6.0
34.6153,4.0
34.6859,4.0
34.7566,7.0
34.8272,6.0
34.8978,3.0
34.9684,9.0
35.0391,6.0
35.1097,5.0
35.1804,4.0
35.251,7.0
35.3217,5.0
35.3923,4.0
35.463,3.0
35.5336,4.0
35.6043,5.0
35.675,8.0
35.7457,8.0
35.8163,5.0
35.887,7.0
35.9577,5.0
36.0284,8.0
36.0991,3.0
36.1698,8.0
36.2405,10.0
36.3112,4.0
36.3819,5.0
36.4526,6.0
36.5233,6.0
36.594,3.0
36.6648,5.0
36.7355,8.0
36.8062,3.0
36.877,8.0
36.9477,6.0
37.0185,13.0
37.0892,13.0
37.16,31.0
37.2307,82.0
37.3015,109.0
37.3723,76.0
37.443,29.0
37.5138,14.0
37.5846,16.0
37.6554,35.0
37.7262,49.0
37.7969,35.0
37.8677,21.0
37.9385,7.0
38.0094,6.0
38.0802,9.0
38.151,7.0
38.2218,8.0
38.2926,4.0
38.3634,7.0
38.4343,7.0
38.5051,10.0
38.5759,6.0
38.6468,7.0
38.7176,9.0
38.7885,27.0
38.8593,47.0
38.9302,57.0
39.0011,40.0
39.0719,21.0
39.1428,10.0
39.2137,8.0
39.2846,4.0
39.3555,7.0
39.4264,5.0
39.4972,5.0
39.5681,5.0
39.6391,4.0
39.71,4.0
39.7809,7.0
39.8518,9.0
39.9227,6.0
39.9936,6.0
40.0646,7.0
40.1355,5.0
40.2065,9.0
40.2774,8.0
40.3484,12.0
40.4193,5.0
40.4903,9.0
40.5612,10.0
40.6322,25.0
40.7032,78.0
40.7742,100.0
40.8451,73.0
40.9161,37.0
40.9871,11.0
41.0581,6.0
41.1291,11.0
41.2001,6.0
41.2711,4.0
41.3421,8.0
41.4132,10.0
41.4842,6.0
41.5552,5.0
41.6263,5.0
41.6973,9.0
41.7683,6.0
41.8394,3.0
41.9104,7.0
41.9815,5.0
42.0526,9.0
42.1236,6.0
42.1947,7.0
42.2658,7.0
42.3369,7.0
42.408,14.0
42.4791,15.0
42.5502,30.0
42.6213,95.0
42.6924,77.0
42.7635,49.0
42.8346,24.0
42.9057,11.0
42.9768,10.0
43.048,21.0
43.1191,34.0
43.1903,90.0
43.2614,74.0
43.3326,54.0
43.4037,24.0
43.4749,8.0
43.5461,9.0
43.6172,7.0
43.6884,7.0
43.7596,10.0
43.8308,9.0
43.902,3.0
43.9732,11.0
44.0444,6.0
44.1156,6.0
44.1868,10.0
44.258,4.0
44.3292,7.0
44.4005,7.0
44.4717,6.0
44.543,9.0
44.6142,13.0
44.6855,9.0
44.7567,5.0
44.828,7.0
44.8992,9.0
44.9705,8.0
45.0418,7.0
45.1131,7.0
45.1844,9.0
45.2557,13.0
45.327,11.0
45.3983,10.0
45.4696,16.0
45.5409,33.0
45.6122,119.0
45.6835,99.0
45.7549,77.0
45.8262,41.0
45.8975,8.0
45.9689,10.0
46.0403,10.0
46.1116,7.0
46.183,8.0
46.2543,8.0
46.3257,12.0
46.3971,9.0
46.4685,15.0
46.5399,20.0
46.6113,58.0
46.6827,65.0
46.7541,49.0
46.8255,24.0
46.8969,10.0
46.9684,16.0
47.0398,11.0
47.1112,4.0
47.1827,10.0
47.2541,10.0
47.3256,8.0
47.3971,8.0
47.4685,9.0
47.54,11.0
47.6115,18.0
47.683,17.0
47.7544,13.0
47.8259,9.0
47.8974,15.0
47.969,13.0
48.0405,12.0
48.112,21.0
48.1835,59.0
48.255,149.0
48.3266,229.0
48.3981,174.0
48.4697,115.0
48.5412,43.0
48.6128,28.0
48.6844,33.0
48.7559,71.0
48.8275,177.0
48.8991,298.0
48.9707,269.0
49.0423,155.0
49.1139,70.0
49.1855,55.0
49.2571,53.0
49.3287,37.0
49.4004,38.0
49.472,13.0
49.5436,13.0
49.6153,13.0
49.6869,6.0
49.7586,3.0
49.8303,12.0
49.9019,4.0
49.9736,10.0
50.0453,8.0
50.117,8.0
50.1887,5.0
50.2604,7.0
50.3321,7.0
50.4038,8.0
50.4755,5.0
50.5473,7.0
50.619,5.0
50.6907,11.0
50.7625,7.0
50.8342,5.0
50.906,8.0
50.9778,7.0
51.0495,11.0
51.1213,6.0
51.1931,3.0
51.2649,4.0
51.3367,9.0
51.4085,6.0
51.4803,3.0
51.5521,8.0
51.624,7.0
51.6958,9.0
51.7676,8.0
51.8395,5.0
51.9113,8.0
51.9832,9.0
52.0551,4.0
52.1269,6.0
52.1988,9.0
52.2707,4.0
52.3426,8.0
52.4145,10.0
52.4864,7.0
52.5583,6.0
52.6302,4.0
52.7021,7.0
52.7741,10.0
52.846,10.0
52.918,11.0
52.9899,11.0
53.0619,9.0
53.1338,29.0
53.2058,59.0
53.2778,54.0
53.3498,48.0
53.4218,52.0
53.4938,33.0
53.5658,22.0
53.6378,18.0
53.7098,11.0
53.7818,13.0
53.8539,8.0
53.9259,9.0
53.998,16.0
54.07,4.0
54.1421,8.0
54.2142,7.0
54.2862,10.0
54.3583,9.0
54.4304,10.0
54.5025,6.0
54.5746,12.0
54.6467,19.0
54.7189,24.0
54.791,23.0
54.8631,17.0
54.9353,10.0
55.0074,5.0
55.0796,6.0
55.1518,16.0
55.2239,11.0
55.2961,16.0
55.3683,22.0
55.4405,22.0
55.5127,18.0
55.5849,14.0
55.6571,9.0
55.7293,7.0
55.8016,14.0
55.8738,5.0
55.9461,11.0
56.0183,6.0
56.0906,5.0
56.1628,9.0
56.2351,6.0
56.3074,12.0
56.3797,14.0
56.452,18.0
56.5243,18.0
56.5966,13.0
56.6689,10.0
56.7413,7.0
56.8136,7.0
56.886,4.0
56.9583,6.0
57.0307,5.0
57.103,7.0
57.1754,9.0
57.2478,8.0
57.3202,9.0
57.3926,4.0
57.465,5.0
57.5374,9.0
57.6098,7.0
57.6823,4.0
57.7547,9.0
57.8272,6.0
57.8996,9.0
57.9721,5.0
58.0446,7.0
58.117,9.0
58.1895,6.0
58.262,6.0
58.3345,7.0
58.407,2.0
58.4796,7.0
58.5521,1.0
58.6246,4.0
58.6972,4.0
58.7697,11.0
58.8423,8.0
58.9148,7.0
58.9874,10.0
59.06,4.0
59.1326,6.0
59.2052,7.0
59.2778,6.0
59.3504,6.0
59.4231,9.0
59.4957,8.0
59.5683,8.0
59.641,8.0
59.7136,10.0
59.7863,7.0
59.859,10.0
59.9317,10.0
60.0044,9.0
60.0771,14.0
60.1498,11.0
60.2225,18.0
60.2952,21.0
60.368,14.0
60.4407,15.0
60.5135,24.0
60.5862,41.0
60.659,47.0
60.7318,32.0
60.8046,32.0
60.8774,24.0
60.9502,4.0
61.023,12.0
61.0958,9.0
61.1686,12.0
61.2415,11.0
61.3143,10.0
61.3872,12.0
61.4601,21.0
61.5329,12.0
61.6058,14.0
61.6787,15.0
61.7516,9.0
61.8245,14.0
61.8974,20.0
61.9704,17.0
62.0433,24.0
62.1163,29.0
62.1892,105.0
62.2622,314.0
62.3352,395.0
62.4081,244.0
62.4811,240.0
62.5541,125.0
62.6272,34.0
62.7002,17.0
62.7732,22.0
62.8462,20.0
62.9193,19.0
62.9923,15.0
63.0654,8.0
63.1385,13.0
63.2116,12.0
63.2847,13.0
63.3578,17.0
63.4309,10.0
63.504,9.0
63.5771,20.0
63.6503,21.0
63.7234,12.0
63.7966,13.0
63.8698,14.0
63.943,10.0
64.0161,9.0
64.0893,9.0
64.1625,6.0
64.2358,8.0
64.309,8.0
64.3822,6.0
64.4555,9.0
64.5287,4.0
64.602,9.0
64.6753,5.0
64.7486,8.0
64.8219,8.0
64.8952,7.0
64.9685,6.0
65.0418,4.0
65.1151,8.0
65.1885,9.0
65.2619,11.0
65.3352,12.0
65.4086,9.0
65.482,13.0
65.5554,11.0
65.6288,6.0
65.7022,7.0
65.7756,7.0
65.8491,4.0
65.9225,6.0
65.996,8.0
66.0694,8.0
66.1429,8.0
66.2164,10.0
66.2899,6.0
66.3634,6.0
66.4369,5.0
66.5104,6.0
66.584,8.0
66.6575,14.0
66.7311,28.0
66.8047,20.0
66.8782,19.0
66.9518,18.0
67.0254,10.0
67.099,14.0
67.1727,7.0
67.2463,14.0
67.3199,12.0
67.3936,9.0
67.4673,10.0
67.5409,10.0
67.6146,6.0
67.6883,6.0
67.762,8.0
67.8357,6.0
67.9095,6.0
67.9832,8.0
68.057,7.0
68.1307,7.0
68.2045,3.0
68.2783,5.0
68.3521,5.0
68.4259,3.0
68.4997,7.0
68.5735,7.0
68.6473,6.0
68.7212,7.0
68.7951,4.0
68.8689,9.0
68.9428,8.0
69.0167,6.0
69.0906,7.0
69.1645,7.0
69.2384,11.0
69.3124,17.0
69.3863,25.0
69.4603,17.0
69.5343,21.0
69.6082,9.0
69.6822,10.0
69.7562,12.0
69.8303,12.0
69.9043,18.0
69.9783,12.0
70.0524,12.0
70.1264,8.0
70.2005,7.0
70.2746,10.0
70.3487,9.0
70.4228,13.0
70.4969,7.0
70.5711,9.0
70.6452,8.0
70.7194,9.0
70.7935,7.0
70.8677,7.0
70.9419,8.0
71.0161,6.0
71.0903,6.0
71.1646,11.0
71.2388,5.0
71.313,8.0
71.3873,10.0
71.4616,7.0
71.5359,11.0
71.6102,10.0
71.6845,6.0
71.7588,7.0
71.8331,7.0
71.9075,13.0
71.9818,10.0
72.0562,7.0
72.1306,3.0
72.205,4.0
72.2794,12.0
72.3538,9.0
72.4283,8.0
72.5027,11.0
72.5772,10.0
72.6516,10.0
72.7261,7.0
72.8006,3.0
72.8751,13.0
72.9497,8.0
73.0242,4.0
73.0987,8.0
73.1733,9.0
73.2479,9.0
73.3224,11.0
73.397,14.0
73.4717,19.0
73.5463,16.0
73.6209,20.0
73.6956,11.0
73.7702,9.0
73.8449,12.0
73.9196,11.0
73.9943,10.0
74.069,19.0
74.1437,20.0
74.2185,20.0
74.2932,17.0
74.368,15.0
74.4428,18.0
74.5176,11.0
74.5924,14.0
74.6672,29.0
74.742,26.0
74.8169,18.0
74.8917,15.0
74.9666,20.0
75.0415,8.0
75.1164,17.0
75.1913,19.0
75.2662,9.0
75.3412,18.0
75.4161,14.0
75.4911,10.0
75.5661,15.0
75.6411,12.0
75.7161,10.0
75.7911,12.0
75.8661,10.0
75.9412,7.0
76.0162,9.0
76.0913,10.0
76.1664,11.0
76.2415,13.0
76.3166,13.0
76.3918,9.0
76.4669,10.0
76.5421,10.0
76.6172,10.0
76.6924,35.0
76.7676,114.0
76.8428,74.0
76.9181,37.0
76.9933,44.0
77.0686,43.0
77.1439,14.0
77.2192,12.0
77.2945,13.0
77.3698,11.0
77.4451,7.0
77.5205,7.0
77.5958,12.0
77.6712,13.0
77.7466,13.0
77.822,6.0
77.8974,19.0
77.9728,25.0
78.0483,34.0
78.1238,26.0
78.1992,18.0
78.2747,25.0
78.3502,16.0
78.4258,9.0
78.5013,17.0
78.5769,11.0
78.6524,5.0
78.728,5.0
78.8036,7.0
78.8792,15.0
78.9549,11.0
79.0305,8.0
79.1062,8.0
79.1818,8.0
79.2575,10.0
79.3332,5.0
79.409,8.0
79.4847,12.0
79.5604,13.0
79.6362,8.0
79.712,11.0
79.7878,11.0
79.8636,13.0
79.9394,11.0
80.0153,8.0
80.0912,11.0
80.167,6.0
80.2429,14.0
80.3188,15.0
80.3948,13.0
80.4707,15.0
80.5467,14.0
80.6226,19.0
80.6986,12.0
80.7746,13.0
80.8507,11.0
80.9267,7.0
81.0028,8.0
81.0788,10.0
81.1549,10.0
81.231,17.0
81.3071,18.0
81.3833,19.0
81.4594,15.0
81.5356,14.0
81.6118,18.0
81.688,8.0
81.7642,11.0
81.8404,8.0
81.9167,7.0
81.993,5.0
82.0693,7.0
82.1456,6.0
82.2219,10.0
82.2982,2.0
82.3746,4.0
82.4509,9.0
82.5273,6.0
82.6037,16.0
82.6802,7.0
82.7566,7.0
82.8331,16.0
82.9095,7.0
82.986,7.0
83.0625,7.0
83.1391,8.0
83.2156,5.0
83.2922,5.0
83.3687,9.0
83.4453,6.0
83.522,10.0
83.5986,7.0
83.6241,10.0