File: data/xrd/xy/phenethylammonium_iodide.lbl_rescaled.xy
# Processed xy data with Haverford two-theta converted to LBL scale
two_theta,intensity
5.81234,6.0
5.8821,6.0
5.95186,4.0
6.02163,5.0
6.0914,5.0
6.16116,6.0
6.23093,3.0
6.3007,6.0
6.37046,3.0
6.44023,4.0
6.51,6.0
6.57977,4.0
6.64954,4.0
6.71931,6.0
6.78908,3.0
6.85886,4.0
6.92863,5.0
6.9984,2.0
7.06818,6.0
7.13795,1.0
7.20773,5.0
7.27751,9.0
7.34728,5.0
7.41706,4.0
7.48684,5.0
7.55662,5.0
7.6264,5.0
7.69618,6.0
7.76596,5.0
7.83574,6.0
7.90553,4.0
7.97531,3.0
8.0451,6.0
8.11488,6.0
8.18467,5.0
8.25445,6.0
8.32424,4.0
8.39403,3.0
8.46382,3.0
8.53361,3.0
8.6034,6.0
8.67319,4.0
8.74299,2.0
8.81278,4.0
8.88257,3.0
8.95237,5.0
9.02217,5.0
9.09196,5.0
9.16176,5.0
9.23156,4.0
9.30136,6.0
9.37116,9.0
9.44096,2.0
9.51076,6.0
9.58057,6.0
9.65037,5.0
9.72018,7.0
9.78998,6.0
9.85979,5.0
9.9296,7.0
9.99941,8.0
10.0692,5.0
10.139,12.0
10.2088,8.0
10.2787,11.0
10.3485,11.0
10.4183,14.0
10.4881,20.0
10.5579,34.0
10.6277,78.0
10.6976,123.0
10.7674,125.0
10.8372,61.0
10.907,30.0
10.9768,11.0
11.0467,9.0
11.1165,5.0
11.1863,4.0
11.2561,4.0
11.326,3.0
11.3958,6.0
11.4656,2.0
11.5355,5.0
11.6053,7.0
11.6751,3.0
11.745,6.0
11.8148,6.0
11.8846,2.0
11.9545,4.0
12.0243,3.0
12.0942,6.0
12.164,5.0
12.2338,6.0
12.3037,4.0
12.3735,3.0
12.4434,4.0
12.5132,7.0
12.5831,6.0
12.6529,4.0
12.7228,3.0
12.7926,3.0
12.8625,2.0
12.9324,2.0
13.0022,4.0
13.0721,6.0
13.1419,4.0
13.2118,2.0
13.2817,4.0
13.3515,7.0
13.4214,5.0
13.4912,9.0
13.5611,6.0
13.631,6.0
13.7009,3.0
13.7707,4.0
13.8406,5.0
13.9105,12.0
13.9803,3.0
14.0502,4.0
14.1201,3.0
14.19,7.0
14.2599,6.0
14.3297,1.0
14.3996,5.0
14.4695,6.0
14.5394,5.0
14.6093,3.0
14.6792,6.0
14.7491,5.0
14.819,3.0
14.8889,4.0
14.9588,7.0
15.0287,5.0
15.0985,6.0
15.1684,4.0
15.2384,6.0
15.3083,4.0
15.3782,6.0
15.4481,5.0
15.518,6.0
15.5879,6.0
15.6578,10.0
15.7277,7.0
15.7976,4.0
15.8675,5.0
15.9374,7.0
16.0074,5.0
16.0773,4.0
16.1472,7.0
16.2171,3.0
16.2871,6.0
16.357,5.0
16.4269,4.0
16.4968,7.0
16.5668,5.0
16.6367,6.0
16.7066,7.0
16.7766,5.0
16.8465,4.0
16.9165,5.0
16.9864,6.0
17.0563,5.0
17.1263,6.0
17.1962,6.0
17.2662,7.0
17.3361,9.0
17.4061,1.0
17.476,9.0
17.546,4.0
17.6159,5.0
17.6859,7.0
17.7559,5.0
17.8258,4.0
17.8958,5.0
17.9658,6.0
18.0357,2.0
18.1057,6.0
18.1757,7.0
18.2456,4.0
18.3156,6.0
18.3856,6.0
18.4556,2.0
18.5255,1.0
18.5955,8.0
18.6655,8.0
18.7355,3.0
18.8055,6.0
18.8755,10.0
18.9455,3.0
19.0155,7.0
19.0854,4.0
19.1554,4.0
19.2254,7.0
19.2954,6.0
19.3654,6.0
19.4354,8.0
19.5055,6.0
19.5755,6.0
19.6455,5.0
19.7155,2.0
19.7855,6.0
19.8555,2.0
19.9255,3.0
19.9956,10.0
20.0656,7.0
20.1356,8.0
20.2056,10.0
20.2757,5.0
20.3457,9.0
20.4157,10.0
20.4858,9.0
20.5558,4.0
20.6258,10.0
20.6959,5.0
20.7659,7.0
20.836,8.0
20.906,6.0
20.9761,13.0
21.0461,17.0
21.1162,15.0
21.1862,21.0
21.2563,33.0
21.3263,66.0
21.3964,129.0
21.4665,366.0
21.5365,670.0
21.6066,593.0
21.6767,312.0
21.7467,104.0
21.8168,37.0
21.8869,25.0
21.957,25.0
22.027,9.0
22.0971,12.0
22.1672,12.0
22.2373,9.0
22.3074,8.0
22.3775,17.0
22.4476,23.0
22.5177,37.0
22.5878,71.0
22.6579,116.0
22.728,225.0
22.7981,209.0
22.8682,145.0
22.9383,88.0
23.0084,44.0
23.0785,33.0
23.1487,22.0
23.2188,11.0
23.2889,4.0
23.359,4.0
23.4292,6.0
23.4993,6.0
23.5694,6.0
23.6395,5.0
23.7097,5.0
23.7798,4.0
23.85,12.0
23.9201,4.0
23.9903,8.0
24.0604,10.0
24.1306,5.0
24.2007,5.0
24.2709,8.0
24.341,8.0
24.4112,13.0
24.4814,9.0
24.5515,11.0
24.6217,6.0
24.6919,5.0
24.762,11.0
24.8322,4.0
24.9024,5.0
24.9726,7.0
25.0428,5.0
25.1129,2.0
25.1831,7.0
25.2533,6.0
25.3235,8.0
25.3937,10.0
25.4639,12.0
25.5341,23.0
25.6043,28.0
25.6745,74.0
25.7447,123.0
25.815,130.0
25.8852,109.0
25.9554,64.0
26.0256,38.0
26.0958,20.0
26.1661,12.0
26.2363,9.0
26.3065,6.0
26.3768,14.0
26.447,8.0
26.5172,11.0
26.5875,13.0
26.6577,15.0
26.728,24.0
26.7982,35.0
26.8685,66.0
26.9387,132.0
27.009,329.0
27.0793,460.0
27.1495,300.0
27.2198,144.0
27.2901,59.0
27.3603,21.0
27.4306,14.0
27.5009,15.0
27.5712,9.0
27.6415,10.0
27.7117,12.0
27.782,5.0
27.8523,8.0
27.9226,12.0
27.9929,16.0
28.0632,10.0
28.1335,21.0
28.2038,31.0
28.2742,59.0
28.3445,76.0
28.4148,86.0
28.4851,84.0
28.5554,77.0
28.6258,71.0
28.6961,45.0
28.7664,34.0
28.8368,59.0
28.9071,77.0
28.9774,74.0
29.0478,68.0
29.1181,61.0
29.1885,39.0
29.2588,35.0
29.3292,38.0
29.3995,32.0
29.4699,84.0
29.5403,149.0
29.6106,153.0
29.681,100.0
29.7514,64.0
29.8218,34.0
29.8921,23.0
29.9625,16.0
30.0329,12.0
30.1033,9.0
30.1737,9.0
30.2441,9.0
30.3145,16.0
30.3849,9.0
30.4553,17.0
30.5257,27.0
30.5961,25.0
30.6666,15.0
30.737,8.0
30.8074,7.0
30.8778,7.0
30.9482,6.0
31.0187,9.0
31.0891,8.0
31.1596,6.0
31.23,6.0
31.3004,3.0
31.3709,6.0
31.4413,2.0
31.5118,13.0
31.5823,5.0
31.6527,9.0
31.7232,8.0
31.7937,12.0
31.8641,16.0
31.9346,13.0
32.0051,9.0
32.0756,10.0
32.1461,14.0
32.2166,14.0
32.287,20.0
32.3575,28.0
32.428,45.0
32.4985,122.0
32.5691,302.0
32.6396,428.0
32.7101,340.0
32.7806,162.0
32.8511,61.0
32.9216,35.0
32.9922,20.0
33.0627,11.0
33.1332,12.0
33.2038,9.0
33.2743,12.0
33.3449,7.0
33.4154,8.0
33.486,5.0
33.5565,12.0
33.6271,9.0
33.6977,10.0
33.7682,20.0
33.8388,38.0
33.9094,39.0
33.9799,29.0
34.0505,27.0
34.1211,11.0
34.1917,8.0
34.2623,9.0
34.3329,8.0
34.4035,5.0
34.4741,12.0
34.5447,7.0
34.6153,10.0
34.6859,8.0
34.7566,4.0
34.8272,7.0
34.8978,6.0
34.9684,8.0
35.0391,6.0
35.1097,4.0
35.1804,6.0
35.251,6.0
35.3217,5.0
35.3923,5.0
35.463,10.0
35.5336,5.0
35.6043,10.0
35.675,8.0
35.7457,11.0
35.8163,9.0
35.887,22.0
35.9577,23.0
36.0284,26.0
36.0991,22.0
36.1698,11.0
36.2405,12.0
36.3112,13.0
36.3819,8.0
36.4526,8.0
36.5233,4.0
36.594,4.0
36.6648,3.0
36.7355,4.0
36.8062,6.0
36.877,7.0
36.9477,3.0
37.0185,7.0
37.0892,8.0
37.16,5.0
37.2307,6.0
37.3015,11.0
37.3723,4.0
37.443,7.0
37.5138,3.0
37.5846,9.0
37.6554,5.0
37.7262,6.0
37.7969,7.0
37.8677,11.0
37.9385,5.0
38.0094,25.0
38.0802,26.0
38.151,50.0
38.2218,123.0
38.2926,150.0
38.3634,96.0
38.4343,51.0
38.5051,35.0
38.5759,12.0
38.6468,11.0
38.7176,11.0
38.7885,7.0
38.8593,3.0
38.9302,5.0
39.0011,10.0
39.0719,10.0
39.1428,9.0
39.2137,8.0
39.2846,10.0
39.3555,9.0
39.4264,12.0
39.4972,21.0
39.5681,44.0
39.6391,56.0
39.71,48.0
39.7809,48.0
39.8518,29.0
39.9227,23.0
39.9936,14.0
40.0646,11.0
40.1355,6.0
40.2065,4.0
40.2774,7.0
40.3484,8.0
40.4193,7.0
40.4903,9.0
40.5612,26.0
40.6322,28.0
40.7032,35.0
40.7742,29.0
40.8451,26.0
40.9161,26.0
40.9871,28.0
41.0581,32.0
41.1291,32.0
41.2001,28.0
41.2711,16.0
41.3421,12.0
41.4132,6.0
41.4842,9.0
41.5552,6.0
41.6263,3.0
41.6973,5.0
41.7683,5.0
41.8394,6.0
41.9104,10.0
41.9815,7.0
42.0526,9.0
42.1236,10.0
42.1947,19.0
42.2658,11.0
42.3369,12.0
42.408,9.0
42.4791,12.0
42.5502,10.0
42.6213,4.0
42.6924,9.0
42.7635,6.0
42.8346,8.0
42.9057,4.0
42.9768,7.0
43.048,8.0
43.1191,5.0
43.1903,4.0
43.2614,7.0
43.3326,12.0
43.4037,21.0
43.4749,29.0
43.5461,38.0
43.6172,44.0
43.6884,41.0
43.7596,57.0
43.8308,71.0
43.902,92.0
43.9732,95.0
44.0444,94.0
44.1156,67.0
44.1868,34.0
44.258,19.0
44.3292,12.0
44.4005,9.0
44.4717,11.0
44.543,11.0
44.6142,2.0
44.6855,7.0
44.7567,11.0
44.828,7.0
44.8992,6.0
44.9705,5.0
45.0418,7.0
45.1131,5.0
45.1844,5.0
45.2557,7.0
45.327,4.0
45.3983,6.0
45.4696,8.0
45.5409,7.0
45.6122,7.0
45.6835,9.0
45.7549,6.0
45.8262,8.0
45.8975,10.0
45.9689,10.0
46.0403,10.0
46.1116,15.0
46.183,17.0
46.2543,14.0
46.3257,12.0
46.3971,12.0
46.4685,17.0
46.5399,13.0
46.6113,15.0
46.6827,15.0
46.7541,12.0
46.8255,10.0
46.8969,12.0
46.9684,12.0
47.0398,16.0
47.1112,18.0
47.1827,22.0
47.2541,24.0
47.3256,22.0
47.3971,17.0
47.4685,12.0
47.54,12.0
47.6115,5.0
47.683,3.0
47.7544,10.0
47.8259,5.0
47.8974,6.0
47.969,9.0
48.0405,12.0
48.112,15.0
48.1835,16.0
48.255,17.0
48.3266,33.0
48.3981,27.0
48.4697,41.0
48.5412,27.0
48.6128,36.0
48.6844,44.0
48.7559,64.0
48.8275,75.0
48.8991,60.0
48.9707,47.0
49.0423,32.0
49.1139,15.0
49.1855,17.0
49.2571,12.0
49.3287,11.0
49.4004,14.0
49.472,19.0
49.5436,23.0
49.6153,29.0
49.6869,25.0
49.7586,19.0
49.8303,25.0
49.9019,12.0
49.9736,16.0
50.0453,14.0
50.117,6.0
50.1887,7.0
50.2604,9.0
50.3321,5.0
50.4038,6.0
50.4755,5.0
50.5473,5.0
50.619,10.0
50.6907,7.0
50.7625,6.0
50.8342,10.0
50.906,17.0
50.9778,19.0
51.0495,16.0
51.1213,32.0
51.1931,23.0
51.2649,20.0
51.3367,19.0
51.4085,16.0
51.4803,9.0
51.5521,4.0
51.624,7.0
51.6958,5.0
51.7676,8.0
51.8395,6.0
51.9113,4.0
51.9832,6.0
52.0551,3.0
52.1269,6.0
52.1988,5.0
52.2707,5.0
52.3426,11.0
52.4145,5.0
52.4864,10.0
52.5583,4.0
52.6302,7.0
52.7021,8.0
52.7741,10.0
52.846,9.0
52.918,17.0
52.9899,19.0
53.0619,19.0
53.1338,33.0
53.2058,34.0
53.2778,26.0
53.3498,22.0
53.4218,17.0
53.4938,15.0
53.5658,10.0
53.6378,11.0
53.7098,9.0
53.7818,11.0
53.8539,14.0
53.9259,13.0
53.998,11.0
54.07,19.0
54.1421,25.0
54.2142,25.0
54.2862,35.0
54.3583,26.0
54.4304,28.0
54.5025,13.0
54.5746,10.0
54.6467,8.0
54.7189,6.0
54.791,4.0
54.8631,9.0
54.9353,8.0
55.0074,8.0
55.0796,6.0
55.1518,5.0
55.2239,5.0
55.2961,8.0
55.3683,8.0
55.4405,14.0
55.5127,7.0
55.5849,12.0
55.6571,7.0
55.7293,14.0
55.8016,34.0
55.8738,30.0
55.9461,31.0
56.0183,26.0
56.0906,18.0
56.1628,13.0
56.2351,6.0
56.3074,5.0
56.3797,8.0
56.452,3.0
56.5243,9.0
56.5966,7.0
56.6689,7.0
56.7413,6.0
56.8136,6.0
56.886,9.0
56.9583,12.0
57.0307,10.0
57.103,13.0
57.1754,18.0
57.2478,13.0
57.3202,11.0
57.3926,7.0
57.465,8.0
57.5374,4.0
57.6098,5.0
57.6823,6.0
57.7547,8.0
57.8272,5.0
57.8996,4.0
57.9721,6.0
58.0446,6.0
58.117,6.0
58.1895,6.0
58.262,3.0
58.3345,10.0
58.407,6.0
58.4796,10.0
58.5521,6.0
58.6246,8.0
58.6972,10.0
58.7697,9.0
58.8423,11.0
58.9148,13.0
58.9874,11.0
59.06,13.0
59.1326,11.0
59.2052,7.0
59.2778,11.0
59.3504,10.0
59.4231,9.0
59.4957,12.0
59.5683,9.0
59.641,13.0
59.7136,15.0
59.7863,19.0
59.859,24.0
59.9317,37.0
60.0044,36.0
60.0771,31.0
60.1498,29.0
60.2225,16.0
60.2952,19.0
60.368,9.0
60.4407,8.0
60.5135,8.0
60.5862,7.0
60.659,10.0
60.7318,6.0
60.8046,10.0
60.8774,6.0
60.9502,11.0
61.023,7.0
61.0958,10.0
61.1686,12.0
61.2415,12.0
61.3143,12.0
61.3872,9.0
61.4601,8.0
61.5329,8.0
61.6058,4.0
61.6787,9.0
61.7516,15.0
61.8245,11.0
61.8974,13.0
61.9704,24.0
62.0433,25.0
62.1163,20.0
62.1892,21.0
62.2622,16.0
62.3352,14.0
62.4081,7.0
62.4811,6.0
62.5541,8.0
62.6272,6.0
62.7002,8.0
62.7732,10.0
62.8462,6.0
62.9193,8.0
62.9923,8.0
63.0654,7.0
63.1385,13.0
63.2116,10.0
63.2847,9.0
63.3578,7.0
63.4309,7.0
63.504,10.0
63.5771,6.0
63.6503,10.0
63.7234,16.0
63.7966,14.0
63.8698,11.0
63.943,16.0
64.0161,14.0
64.0893,11.0
64.1625,10.0
64.2358,11.0
64.309,7.0
64.3822,9.0
64.4555,9.0
64.5287,7.0
64.602,6.0
64.6753,6.0
64.7486,9.0
64.8219,4.0
64.8952,9.0
64.9685,8.0
65.0418,9.0
65.1151,12.0
65.1885,17.0
65.2619,18.0
65.3352,21.0
65.4086,19.0
65.482,19.0
65.5554,19.0
65.6288,15.0
65.7022,13.0
65.7756,9.0
65.8491,13.0
65.9225,15.0
65.996,17.0
66.0694,28.0
66.1429,15.0
66.2164,15.0
66.2899,14.0
66.3634,12.0
66.4369,13.0
66.5104,10.0
66.584,11.0
66.6575,12.0
66.7311,11.0
66.8047,13.0
66.8782,14.0
66.9518,15.0
67.0254,15.0
67.099,15.0
67.1727,16.0
67.2463,12.0
67.3199,13.0
67.3936,8.0
67.4673,10.0
67.5409,15.0
67.6146,5.0
67.6883,10.0
67.762,10.0
67.8357,9.0
67.9095,9.0
67.9832,7.0
68.057,7.0
68.1307,8.0
68.2045,13.0
68.2783,15.0
68.3521,28.0
68.4259,31.0
68.4997,24.0
68.5735,22.0
68.6473,17.0
68.7212,15.0
68.7951,10.0
68.8689,12.0
68.9428,12.0
69.0167,7.0
69.0906,13.0
69.1645,10.0
69.2384,9.0
69.3124,13.0
69.3863,14.0
69.4603,10.0
69.5343,13.0
69.6082,16.0
69.6822,20.0
69.7562,18.0
69.8303,22.0
69.9043,16.0
69.9783,20.0
70.0524,16.0
70.1264,16.0
70.2005,15.0
70.2746,15.0
70.3487,3.0
70.4228,6.0
70.4969,10.0
70.5711,7.0
70.6452,6.0
70.7194,7.0
70.7935,12.0
70.8677,8.0
70.9419,9.0
71.0161,9.0
71.0903,10.0
71.1646,10.0
71.2388,14.0
71.313,11.0
71.3873,8.0
71.4616,12.0
71.5359,10.0
71.6102,8.0
71.6845,8.0
71.7588,13.0
71.8331,6.0
71.9075,9.0
71.9818,8.0
72.0562,5.0
72.1306,7.0
72.205,8.0
72.2794,8.0
72.3538,9.0
72.4283,5.0
72.5027,13.0
72.5772,15.0
72.6516,14.0
72.7261,8.0
72.8006,7.0
72.8751,7.0
72.9497,8.0
73.0242,8.0
73.0987,8.0
73.1733,8.0
73.2479,5.0
73.3224,10.0
73.397,17.0
73.4717,10.0
73.5463,7.0
73.6209,6.0
73.6956,10.0
73.7702,9.0
73.8449,10.0
73.9196,4.0
73.9943,11.0
74.069,8.0
74.1437,9.0
74.2185,5.0
74.2932,7.0
74.368,5.0
74.4428,4.0
74.5176,2.0
74.5924,13.0
74.6672,3.0
74.742,12.0
74.8169,12.0
74.8917,9.0
74.9666,16.0
75.0415,16.0
75.1164,12.0
75.1913,25.0
75.2662,14.0
75.3412,13.0
75.4161,11.0
75.4911,5.0
75.5661,20.0
75.6411,14.0
75.7161,11.0
75.7911,13.0
75.8661,13.0
75.9412,10.0
76.0162,8.0
76.0913,11.0
76.1664,19.0
76.2415,10.0
76.3166,14.0
76.3918,8.0
76.4669,11.0
76.5421,5.0
76.6172,9.0
76.6924,16.0
76.7676,5.0
76.8428,15.0
76.9181,7.0
76.9933,5.0
77.0686,12.0
77.1439,5.0
77.2192,10.0
77.2945,8.0
77.3698,7.0
77.4451,10.0
77.5205,5.0
77.5958,6.0
77.6712,9.0
77.7466,10.0
77.822,4.0
77.8974,6.0
77.9728,8.0
78.0483,5.0
78.1238,4.0
78.1992,5.0
78.2747,12.0
78.3502,7.0
78.4258,7.0
78.5013,8.0
78.5769,14.0
78.6524,9.0
78.728,12.0
78.8036,7.0
78.8792,10.0
78.9549,6.0
79.0305,6.0
79.1062,11.0
79.1818,5.0
79.2575,5.0
79.3332,4.0
79.409,4.0
79.4847,4.0
79.5604,12.0
79.6362,5.0
79.712,13.0
79.7878,6.0
79.8636,12.0
79.9394,11.0
80.0153,13.0
80.0912,12.0
80.167,10.0
80.2429,11.0
80.3188,14.0
80.3948,5.0
80.4707,8.0
80.5467,15.0
80.6226,4.0
80.6986,6.0
80.7746,8.0
80.8507,2.0
80.9267,7.0
81.0028,6.0
81.0788,4.0
81.1549,10.0
81.231,6.0
81.3071,4.0
81.3833,7.0
81.4594,6.0
81.5356,4.0
81.6118,9.0
81.688,5.0
81.7642,6.0
81.8404,8.0
81.9167,7.0
81.993,13.0
82.0693,14.0
82.1456,8.0
82.2219,11.0
82.2982,11.0
82.3746,7.0
82.4509,7.0
82.5273,9.0
82.6037,9.0
82.6802,6.0
82.7566,7.0
82.8331,10.0
82.9095,8.0
82.986,7.0
83.0625,9.0
83.1391,8.0
83.2156,8.0
83.2922,6.0
83.3687,4.0
83.4453,5.0
83.522,6.0
83.5986,6.0
83.6241,4.0