File: data/xrd/xy/Piperidinium_Iodide.lbl_rescaled.xy
# Processed xy data with Haverford two-theta converted to LBL scale
two_theta,intensity
5.81234,2.0
5.8821,2.0
5.95186,2.0
6.02163,1.0
6.0914,1.0
6.16116,2.0
6.23093,3.0
6.3007,3.0
6.37046,2.0
6.44023,2.0
6.51,3.0
6.57977,4.0
6.64954,3.0
6.71931,1.0
6.78908,2.0
6.85886,3.0
6.92863,1.0
6.9984,3.0
7.06818,1.0
7.13795,1.0
7.20773,1.0
7.27751,4.0
7.34728,2.0
7.41706,1.0
7.48684,5.0
7.55662,3.0
7.6264,2.0
7.69618,2.0
7.76596,1.0
7.83574,4.0
7.90553,2.0
7.97531,5.0
8.0451,3.0
8.11488,6.0
8.18467,3.0
8.25445,1.0
8.32424,3.0
8.39403,2.0
8.46382,4.0
8.53361,0.0
8.6034,3.0
8.67319,1.0
8.74299,2.0
8.81278,5.0
8.88257,2.0
8.95237,2.0
9.02217,2.0
9.09196,4.0
9.16176,4.0
9.23156,2.0
9.30136,3.0
9.37116,0.0
9.44096,5.0
9.51076,1.0
9.58057,2.0
9.65037,1.0
9.72018,3.0
9.78998,3.0
9.85979,0.0
9.9296,1.0
9.99941,2.0
10.0692,3.0
10.139,5.0
10.2088,2.0
10.2787,1.0
10.3485,2.0
10.4183,4.0
10.4881,2.0
10.5579,4.0
10.6277,3.0
10.6976,3.0
10.7674,4.0
10.8372,8.0
10.907,8.0
10.9768,6.0
11.0467,14.0
11.1165,30.0
11.1863,62.0
11.2561,49.0
11.326,24.0
11.3958,10.0
11.4656,1.0
11.5355,3.0
11.6053,0.0
11.6751,3.0
11.745,4.0
11.8148,1.0
11.8846,3.0
11.9545,5.0
12.0243,4.0
12.0942,3.0
12.164,4.0
12.2338,4.0
12.3037,4.0
12.3735,2.0
12.4434,1.0
12.5132,0.0
12.5831,3.0
12.6529,1.0
12.7228,2.0
12.7926,3.0
12.8625,2.0
12.9324,3.0
13.0022,0.0
13.0721,1.0
13.1419,4.0
13.2118,5.0
13.2817,3.0
13.3515,3.0
13.4214,5.0
13.4912,3.0
13.5611,2.0
13.631,2.0
13.7009,6.0
13.7707,3.0
13.8406,3.0
13.9105,2.0
13.9803,0.0
14.0502,4.0
14.1201,4.0
14.19,3.0
14.2599,4.0
14.3297,1.0
14.3996,3.0
14.4695,1.0
14.5394,4.0
14.6093,5.0
14.6792,1.0
14.7491,2.0
14.819,1.0
14.8889,4.0
14.9588,5.0
15.0287,2.0
15.0985,3.0
15.1684,1.0
15.2384,3.0
15.3083,4.0
15.3782,3.0
15.4481,2.0
15.518,3.0
15.5879,2.0
15.6578,0.0
15.7277,1.0
15.7976,8.0
15.8675,2.0
15.9374,3.0
16.0074,7.0
16.0773,2.0
16.1472,11.0
16.2171,18.0
16.2871,34.0
16.357,53.0
16.4269,37.0
16.4968,45.0
16.5668,11.0
16.6367,4.0
16.7066,2.0
16.7766,5.0
16.8465,2.0
16.9165,4.0
16.9864,4.0
17.0563,3.0
17.1263,5.0
17.1962,3.0
17.2662,4.0
17.3361,0.0
17.4061,5.0
17.476,5.0
17.546,3.0
17.6159,0.0
17.6859,3.0
17.7559,5.0
17.8258,2.0
17.8958,3.0
17.9658,1.0
18.0357,4.0
18.1057,1.0
18.1757,1.0
18.2456,2.0
18.3156,4.0
18.3856,1.0
18.4556,7.0
18.5255,5.0
18.5955,6.0
18.6655,14.0
18.7355,19.0
18.8055,21.0
18.8755,26.0
18.9455,15.0
19.0155,11.0
19.0854,8.0
19.1554,16.0
19.2254,8.0
19.2954,4.0
19.3654,6.0
19.4354,3.0
19.5055,2.0
19.5755,4.0
19.6455,4.0
19.7155,5.0
19.7855,5.0
19.8555,3.0
19.9255,1.0
19.9956,4.0
20.0656,7.0
20.1356,5.0
20.2056,11.0
20.2757,16.0
20.3457,25.0
20.4157,27.0
20.4858,40.0
20.5558,19.0
20.6258,23.0
20.6959,9.0
20.7659,9.0
20.836,1.0
20.906,0.0
20.9761,3.0
21.0461,5.0
21.1162,5.0
21.1862,6.0
21.2563,4.0
21.3263,3.0
21.3964,3.0
21.4665,7.0
21.5365,6.0
21.6066,11.0
21.6767,10.0
21.7467,16.0
21.8168,29.0
21.8869,36.0
21.957,30.0
22.027,50.0
22.0971,91.0
22.1672,143.0
22.2373,261.0
22.3074,255.0
22.3775,106.0
22.4476,20.0
22.5177,16.0
22.5878,8.0
22.6579,8.0
22.728,8.0
22.7981,5.0
22.8682,16.0
22.9383,21.0
23.0084,60.0
23.0785,61.0
23.1487,69.0
23.2188,107.0
23.2889,94.0
23.359,59.0
23.4292,19.0
23.4993,5.0
23.5694,4.0
23.6395,8.0
23.7097,3.0
23.7798,3.0
23.85,4.0
23.9201,4.0
23.9903,8.0
24.0604,3.0
24.1306,5.0
24.2007,7.0
24.2709,11.0
24.341,16.0
24.4112,16.0
24.4814,15.0
24.5515,8.0
24.6217,7.0
24.6919,11.0
24.762,5.0
24.8322,5.0
24.9024,5.0
24.9726,7.0
25.0428,3.0
25.1129,10.0
25.1831,6.0
25.2533,5.0
25.3235,13.0
25.3937,25.0
25.4639,34.0
25.5341,55.0
25.6043,89.0
25.6745,108.0
25.7447,120.0
25.815,64.0
25.8852,21.0
25.9554,14.0
26.0256,10.0
26.0958,17.0
26.1661,29.0
26.2363,30.0
26.3065,43.0
26.3768,43.0
26.447,43.0
26.5172,59.0
26.5875,58.0
26.6577,65.0
26.728,77.0
26.7982,78.0
26.8685,59.0
26.9387,88.0
27.009,76.0
27.0793,57.0
27.1495,27.0
27.2198,10.0
27.2901,6.0
27.3603,5.0
27.4306,8.0
27.5009,7.0
27.5712,6.0
27.6415,5.0
27.7117,3.0
27.782,3.0
27.8523,6.0
27.9226,1.0
27.9929,6.0
28.0632,7.0
28.1335,5.0
28.2038,8.0
28.2742,6.0
28.3445,18.0
28.4148,31.0
28.4851,34.0
28.5554,46.0
28.6258,42.0
28.6961,64.0
28.7664,45.0
28.8368,41.0
28.9071,30.0
28.9774,22.0
29.0478,17.0
29.1181,23.0
29.1885,36.0
29.2588,36.0
29.3292,22.0
29.3995,14.0
29.4699,6.0
29.5403,4.0
29.6106,7.0
29.681,8.0
29.7514,6.0
29.8218,6.0
29.8921,3.0
29.9625,12.0
30.0329,5.0
30.1033,5.0
30.1737,4.0
30.2441,2.0
30.3145,5.0
30.3849,3.0
30.4553,5.0
30.5257,2.0
30.5961,4.0
30.6666,5.0
30.737,6.0
30.8074,4.0
30.8778,4.0
30.9482,4.0
31.0187,6.0
31.0891,3.0
31.1596,5.0
31.23,4.0
31.3004,4.0
31.3709,6.0
31.4413,6.0
31.5118,3.0
31.5823,3.0
31.6527,5.0
31.7232,4.0
31.7937,1.0
31.8641,4.0
31.9346,8.0
32.0051,8.0
32.0756,3.0
32.1461,6.0
32.2166,5.0
32.287,7.0
32.3575,7.0
32.428,8.0
32.4985,34.0
32.5691,52.0
32.6396,74.0
32.7101,80.0
32.7806,82.0
32.8511,82.0
32.9216,69.0
32.9922,52.0
33.0627,39.0
33.1332,46.0
33.2038,40.0
33.2743,58.0
33.3449,74.0
33.4154,94.0
33.486,137.0
33.5565,142.0
33.6271,55.0
33.6977,31.0
33.7682,13.0
33.8388,11.0
33.9094,7.0
33.9799,12.0
34.0505,15.0
34.1211,16.0
34.1917,10.0
34.2623,5.0
34.3329,9.0
34.4035,5.0
34.4741,5.0
34.5447,4.0
34.6153,7.0
34.6859,7.0
34.7566,11.0
34.8272,18.0
34.8978,25.0
34.9684,40.0
35.0391,48.0
35.1097,50.0
35.1804,38.0
35.251,17.0
35.3217,17.0
35.3923,17.0
35.463,17.0
35.5336,30.0
35.6043,16.0
35.675,20.0
35.7457,21.0
35.8163,30.0
35.887,26.0
35.9577,20.0
36.0284,14.0
36.0991,19.0
36.1698,22.0
36.2405,21.0
36.3112,31.0
36.3819,34.0
36.4526,28.0
36.5233,14.0
36.594,6.0
36.6648,6.0
36.7355,4.0
36.8062,1.0
36.877,4.0
36.9477,5.0
37.0185,5.0
37.0892,2.0
37.16,5.0
37.2307,6.0
37.3015,5.0
37.3723,7.0
37.443,4.0
37.5138,4.0
37.5846,10.0
37.6554,10.0
37.7262,9.0
37.7969,10.0
37.8677,16.0
37.9385,19.0
38.0094,23.0
38.0802,32.0
38.151,35.0
38.2218,43.0
38.2926,26.0
38.3634,25.0
38.4343,22.0
38.5051,28.0
38.5759,35.0
38.6468,23.0
38.7176,29.0
38.7885,21.0
38.8593,16.0
38.9302,15.0
39.0011,2.0
39.0719,6.0
39.1428,12.0
39.2137,14.0
39.2846,20.0
39.3555,21.0
39.4264,21.0
39.4972,16.0
39.5681,20.0
39.6391,23.0
39.71,25.0
39.7809,26.0
39.8518,17.0
39.9227,20.0
39.9936,19.0
40.0646,18.0
40.1355,14.0
40.2065,5.0
40.2774,9.0
40.3484,18.0
40.4193,15.0
40.4903,19.0
40.5612,15.0
40.6322,14.0
40.7032,6.0
40.7742,5.0
40.8451,5.0
40.9161,6.0
40.9871,5.0
41.0581,9.0
41.1291,4.0
41.2001,14.0
41.2711,14.0
41.3421,24.0
41.4132,29.0
41.4842,48.0
41.5552,37.0
41.6263,30.0
41.6973,21.0
41.7683,11.0
41.8394,6.0
41.9104,8.0
41.9815,4.0
42.0526,5.0
42.1236,6.0
42.1947,5.0
42.2658,9.0
42.3369,9.0
42.408,6.0
42.4791,15.0
42.5502,11.0
42.6213,10.0
42.6924,7.0
42.7635,4.0
42.8346,6.0
42.9057,7.0
42.9768,4.0
43.048,3.0
43.1191,8.0
43.1903,3.0
43.2614,6.0
43.3326,9.0
43.4037,4.0
43.4749,6.0
43.5461,9.0
43.6172,9.0
43.6884,15.0
43.7596,10.0
43.8308,12.0
43.902,13.0
43.9732,15.0
44.0444,35.0
44.1156,36.0
44.1868,33.0
44.258,51.0
44.3292,28.0
44.4005,28.0
44.4717,12.0
44.543,8.0
44.6142,11.0
44.6855,5.0
44.7567,5.0
44.828,13.0
44.8992,15.0
44.9705,17.0
45.0418,29.0
45.1131,21.0
45.1844,14.0
45.2557,11.0
45.327,6.0
45.3983,8.0
45.4696,5.0
45.5409,10.0
45.6122,17.0
45.6835,19.0
45.7549,22.0
45.8262,17.0
45.8975,29.0
45.9689,18.0
46.0403,15.0
46.1116,7.0
46.183,9.0
46.2543,6.0
46.3257,9.0
46.3971,6.0
46.4685,7.0
46.5399,15.0
46.6113,14.0
46.6827,13.0
46.7541,9.0
46.8255,4.0
46.8969,9.0
46.9684,5.0
47.0398,4.0
47.1112,8.0
47.1827,11.0
47.2541,7.0
47.3256,9.0
47.3971,7.0
47.4685,4.0
47.54,8.0
47.6115,8.0
47.683,14.0
47.7544,19.0
47.8259,16.0
47.8974,12.0
47.969,12.0
48.0405,10.0
48.112,5.0
48.1835,2.0
48.255,5.0
48.3266,6.0
48.3981,5.0
48.4697,5.0
48.5412,8.0
48.6128,5.0
48.6844,5.0
48.7559,7.0
48.8275,1.0
48.8991,4.0
48.9707,9.0
49.0423,7.0
49.1139,7.0
49.1855,16.0
49.2571,16.0
49.3287,15.0
49.4004,25.0
49.472,23.0
49.5436,24.0
49.6153,25.0
49.6869,33.0
49.7586,38.0
49.8303,22.0
49.9019,16.0
49.9736,13.0
50.0453,9.0
50.117,16.0
50.1887,15.0
50.2604,12.0
50.3321,12.0
50.4038,14.0
50.4755,13.0
50.5473,9.0
50.619,13.0
50.6907,12.0
50.7625,15.0
50.8342,15.0
50.906,15.0
50.9778,16.0
51.0495,9.0
51.1213,12.0
51.1931,13.0
51.2649,18.0
51.3367,17.0
51.4085,20.0
51.4803,22.0
51.5521,20.0
51.624,15.0
51.6958,8.0
51.7676,8.0
51.8395,14.0
51.9113,13.0
51.9832,17.0
52.0551,25.0
52.1269,27.0
52.1988,29.0
52.2707,26.0
52.3426,21.0
52.4145,23.0
52.4864,26.0
52.5583,21.0
52.6302,18.0
52.7021,22.0
52.7741,17.0
52.846,15.0
52.918,20.0
52.9899,37.0
53.0619,42.0
53.1338,32.0
53.2058,24.0
53.2778,21.0
53.3498,16.0
53.4218,20.0
53.4938,18.0
53.5658,18.0
53.6378,22.0
53.7098,17.0
53.7818,12.0
53.8539,17.0
53.9259,9.0
53.998,10.0
54.07,8.0
54.1421,11.0
54.2142,9.0
54.2862,12.0
54.3583,7.0
54.4304,9.0
54.5025,6.0
54.5746,6.0
54.6467,13.0
54.7189,12.0
54.791,11.0
54.8631,19.0
54.9353,14.0
55.0074,12.0
55.0796,14.0
55.1518,10.0
55.2239,13.0
55.2961,10.0
55.3683,9.0
55.4405,7.0
55.5127,8.0
55.5849,4.0
55.6571,4.0
55.7293,5.0
55.8016,10.0
55.8738,7.0
55.9461,9.0
56.0183,4.0
56.0906,5.0
56.1628,7.0
56.2351,5.0
56.3074,9.0
56.3797,5.0
56.452,9.0
56.5243,10.0
56.5966,10.0
56.6689,16.0
56.7413,16.0
56.8136,14.0
56.886,17.0
56.9583,28.0
57.0307,27.0
57.103,32.0
57.1754,43.0
57.2478,38.0
57.3202,27.0
57.3926,24.0
57.465,19.0
57.5374,18.0
57.6098,15.0
57.6823,10.0
57.7547,8.0
57.8272,11.0
57.8996,4.0
57.9721,5.0
58.0446,6.0
58.117,7.0
58.1895,7.0
58.262,12.0
58.3345,9.0
58.407,8.0
58.4796,12.0
58.5521,17.0
58.6246,13.0
58.6972,9.0
58.7697,15.0
58.8423,11.0
58.9148,10.0
58.9874,8.0
59.06,15.0
59.1326,12.0
59.2052,22.0
59.2778,25.0
59.3504,38.0
59.4231,22.0
59.4957,15.0
59.5683,11.0
59.641,9.0
59.7136,9.0
59.7863,11.0
59.859,13.0
59.9317,11.0
60.0044,11.0
60.0771,16.0
60.1498,18.0
60.2225,17.0
60.2952,13.0
60.368,9.0
60.4407,12.0
60.5135,8.0
60.5862,8.0
60.659,7.0
60.7318,7.0
60.8046,10.0
60.8774,14.0
60.9502,12.0
61.023,16.0
61.0958,18.0
61.1686,11.0
61.2415,14.0
61.3143,7.0
61.3872,13.0
61.4601,12.0
61.5329,10.0
61.6058,16.0
61.6787,14.0
61.7516,6.0
61.8245,10.0
61.8974,6.0
61.9704,9.0
62.0433,5.0
62.1163,8.0
62.1892,7.0
62.2622,7.0
62.3352,7.0
62.4081,7.0
62.4811,8.0
62.5541,3.0
62.6272,5.0
62.7002,6.0
62.7732,7.0
62.8462,5.0
62.9193,3.0
62.9923,5.0
63.0654,1.0
63.1385,11.0
63.2116,9.0
63.2847,6.0
63.3578,18.0
63.4309,6.0
63.504,7.0
63.5771,9.0
63.6503,5.0
63.7234,8.0
63.7966,6.0
63.8698,7.0
63.943,6.0
64.0161,12.0
64.0893,15.0
64.1625,18.0
64.2358,23.0
64.309,16.0
64.3822,14.0
64.4555,13.0
64.5287,8.0
64.602,10.0
64.6753,8.0
64.7486,10.0
64.8219,6.0
64.8952,12.0
64.9685,10.0
65.0418,10.0
65.1151,15.0
65.1885,14.0
65.2619,16.0
65.3352,17.0
65.4086,18.0
65.482,12.0
65.5554,20.0
65.6288,20.0
65.7022,21.0
65.7756,13.0
65.8491,11.0
65.9225,10.0
65.996,8.0
66.0694,7.0
66.1429,9.0
66.2164,6.0
66.2899,12.0
66.3634,9.0
66.4369,7.0
66.5104,8.0
66.584,6.0
66.6575,6.0
66.7311,7.0
66.8047,7.0
66.8782,10.0
66.9518,3.0
67.0254,10.0
67.099,7.0
67.1727,5.0
67.2463,7.0
67.3199,4.0
67.3936,4.0
67.4673,3.0
67.5409,6.0
67.6146,9.0
67.6883,3.0
67.762,8.0
67.8357,4.0
67.9095,5.0
67.9832,9.0
68.057,15.0
68.1307,14.0
68.2045,12.0
68.2783,14.0
68.3521,11.0
68.4259,12.0
68.4997,14.0
68.5735,9.0
68.6473,11.0
68.7212,15.0
68.7951,12.0
68.8689,5.0
68.9428,10.0
69.0167,13.0
69.0906,12.0
69.1645,12.0
69.2384,8.0
69.3124,11.0
69.3863,13.0
69.4603,8.0
69.5343,15.0
69.6082,14.0
69.6822,16.0
69.7562,15.0
69.8303,17.0
69.9043,14.0
69.9783,13.0
70.0524,11.0
70.1264,10.0
70.2005,14.0
70.2746,15.0
70.3487,17.0
70.4228,18.0
70.4969,15.0
70.5711,16.0
70.6452,4.0
70.7194,11.0
70.7935,8.0
70.8677,7.0
70.9419,11.0
71.0161,13.0
71.0903,11.0
71.1646,13.0
71.2388,12.0
71.313,11.0
71.3873,13.0
71.4616,7.0
71.5359,11.0
71.6102,8.0
71.6845,6.0
71.7588,6.0
71.8331,10.0
71.9075,9.0
71.9818,11.0
72.0562,12.0
72.1306,13.0
72.205,10.0
72.2794,12.0
72.3538,10.0
72.4283,6.0
72.5027,11.0
72.5772,12.0
72.6516,5.0
72.7261,10.0
72.8006,15.0
72.8751,15.0
72.9497,10.0
73.0242,11.0
73.0987,9.0
73.1733,10.0
73.2479,10.0
73.3224,4.0
73.397,6.0
73.4717,6.0
73.5463,9.0
73.6209,12.0
73.6956,13.0
73.7702,8.0
73.8449,10.0
73.9196,11.0
73.9943,9.0
74.069,12.0
74.1437,13.0
74.2185,10.0
74.2932,15.0
74.368,12.0
74.4428,9.0
74.5176,12.0
74.5924,15.0
74.6672,6.0
74.742,9.0
74.8169,10.0
74.8917,11.0
74.9666,12.0
75.0415,16.0
75.1164,13.0
75.1913,9.0
75.2662,12.0
75.3412,12.0
75.4161,15.0
75.4911,6.0
75.5661,9.0
75.6411,11.0
75.7161,10.0
75.7911,18.0
75.8661,12.0
75.9412,17.0
76.0162,5.0
76.0913,8.0
76.1664,9.0
76.2415,7.0
76.3166,5.0
76.3918,5.0
76.4669,6.0
76.5421,3.0
76.6172,6.0
76.6924,6.0
76.7676,8.0
76.8428,5.0
76.9181,9.0
76.9933,7.0
77.0686,9.0
77.1439,8.0
77.2192,4.0
77.2945,2.0
77.3698,7.0
77.4451,8.0
77.5205,6.0
77.5958,8.0
77.6712,4.0
77.7466,6.0
77.822,5.0
77.8974,10.0
77.9728,6.0
78.0483,6.0
78.1238,7.0
78.1992,5.0
78.2747,6.0
78.3502,8.0
78.4258,3.0
78.5013,5.0
78.5769,6.0
78.6524,8.0
78.728,7.0
78.8036,9.0
78.8792,5.0
78.9549,9.0
79.0305,5.0
79.1062,7.0
79.1818,5.0
79.2575,10.0
79.3332,5.0
79.409,8.0
79.4847,10.0
79.5604,7.0
79.6362,9.0
79.712,9.0
79.7878,7.0
79.8636,10.0
79.9394,3.0
80.0153,12.0
80.0912,10.0
80.167,8.0
80.2429,7.0
80.3188,8.0
80.3948,3.0
80.4707,7.0
80.5467,9.0
80.6226,10.0
80.6986,3.0
80.7746,8.0
80.8507,8.0
80.9267,8.0
81.0028,13.0
81.0788,8.0
81.1549,8.0
81.231,11.0
81.3071,7.0
81.3833,4.0
81.4594,12.0
81.5356,9.0
81.6118,9.0
81.688,5.0
81.7642,11.0
81.8404,9.0
81.9167,12.0
81.993,10.0
82.0693,9.0
82.1456,8.0
82.2219,6.0
82.2982,10.0
82.3746,3.0
82.4509,4.0
82.5273,10.0
82.6037,13.0
82.6802,10.0
82.7566,15.0
82.8331,3.0
82.9095,15.0
82.986,12.0
83.0625,6.0
83.1391,5.0
83.2156,5.0
83.2922,9.0
83.3687,7.0
83.4453,8.0
83.522,11.0
83.5986,7.0
83.6241,10.0