File: data/xrd/xy/Quincilinidium_Bromide.lbl_rescaled.xy
# Processed xy data with Haverford two-theta converted to LBL scale
two_theta,intensity
5.81234,11.0
5.8821,5.0
5.95186,7.0
6.02163,4.0
6.0914,5.0
6.16116,5.0
6.23093,8.0
6.3007,6.0
6.37046,7.0
6.44023,7.0
6.51,8.0
6.57977,7.0
6.64954,9.0
6.71931,7.0
6.78908,5.0
6.85886,7.0
6.92863,6.0
6.9984,4.0
7.06818,5.0
7.13795,5.0
7.20773,5.0
7.27751,8.0
7.34728,6.0
7.41706,4.0
7.48684,4.0
7.55662,10.0
7.6264,5.0
7.69618,7.0
7.76596,8.0
7.83574,5.0
7.90553,3.0
7.97531,6.0
8.0451,2.0
8.11488,4.0
8.18467,6.0
8.25445,5.0
8.32424,5.0
8.39403,5.0
8.46382,6.0
8.53361,6.0
8.6034,2.0
8.67319,6.0
8.74299,4.0
8.81278,7.0
8.88257,6.0
8.95237,2.0
9.02217,4.0
9.09196,8.0
9.16176,1.0
9.23156,3.0
9.30136,8.0
9.37116,5.0
9.44096,3.0
9.51076,1.0
9.58057,4.0
9.65037,6.0
9.72018,7.0
9.78998,3.0
9.85979,2.0
9.9296,2.0
9.99941,8.0
10.0692,7.0
10.139,5.0
10.2088,4.0
10.2787,8.0
10.3485,9.0
10.4183,3.0
10.4881,15.0
10.5579,36.0
10.6277,62.0
10.6976,99.0
10.7674,110.0
10.8372,31.0
10.907,6.0
10.9768,5.0
11.0467,6.0
11.1165,5.0
11.1863,6.0
11.2561,6.0
11.326,4.0
11.3958,10.0
11.4656,4.0
11.5355,3.0
11.6053,4.0
11.6751,7.0
11.745,4.0
11.8148,7.0
11.8846,8.0
11.9545,7.0
12.0243,2.0
12.0942,3.0
12.164,7.0
12.2338,8.0
12.3037,6.0
12.3735,4.0
12.4434,4.0
12.5132,2.0
12.5831,3.0
12.6529,4.0
12.7228,5.0
12.7926,8.0
12.8625,3.0
12.9324,3.0
13.0022,5.0
13.0721,4.0
13.1419,3.0
13.2118,5.0
13.2817,5.0
13.3515,3.0
13.4214,5.0
13.4912,6.0
13.5611,6.0
13.631,4.0
13.7009,7.0
13.7707,4.0
13.8406,3.0
13.9105,9.0
13.9803,5.0
14.0502,6.0
14.1201,3.0
14.19,8.0
14.2599,5.0
14.3297,6.0
14.3996,6.0
14.4695,5.0
14.5394,2.0
14.6093,4.0
14.6792,3.0
14.7491,6.0
14.819,4.0
14.8889,2.0
14.9588,4.0
15.0287,4.0
15.0985,5.0
15.1684,5.0
15.2384,3.0
15.3083,6.0
15.3782,6.0
15.4481,7.0
15.518,7.0
15.5879,5.0
15.6578,5.0
15.7277,6.0
15.7976,5.0
15.8675,7.0
15.9374,4.0
16.0074,5.0
16.0773,6.0
16.1472,5.0
16.2171,3.0
16.2871,4.0
16.357,17.0
16.4269,4.0
16.4968,4.0
16.5668,5.0
16.6367,6.0
16.7066,4.0
16.7766,6.0
16.8465,5.0
16.9165,4.0
16.9864,7.0
17.0563,6.0
17.1263,1.0
17.1962,3.0
17.2662,5.0
17.3361,2.0
17.4061,4.0
17.476,6.0
17.546,9.0
17.6159,1.0
17.6859,3.0
17.7559,6.0
17.8258,10.0
17.8958,3.0
17.9658,9.0
18.0357,2.0
18.1057,5.0
18.1757,3.0
18.2456,4.0
18.3156,4.0
18.3856,8.0
18.4556,3.0
18.5255,4.0
18.5955,5.0
18.6655,1.0
18.7355,0.0
18.8055,4.0
18.8755,7.0
18.9455,6.0
19.0155,3.0
19.0854,7.0
19.1554,3.0
19.2254,7.0
19.2954,3.0
19.3654,7.0
19.4354,6.0
19.5055,8.0
19.5755,13.0
19.6455,17.0
19.7155,33.0
19.7855,40.0
19.8555,25.0
19.9255,10.0
19.9956,7.0
20.0656,8.0
20.1356,5.0
20.2056,9.0
20.2757,8.0
20.3457,5.0
20.4157,6.0
20.4858,4.0
20.5558,6.0
20.6258,4.0
20.6959,7.0
20.7659,6.0
20.836,6.0
20.906,9.0
20.9761,12.0
21.0461,15.0
21.1162,18.0
21.1862,31.0
21.2563,36.0
21.3263,82.0
21.3964,130.0
21.4665,284.0
21.5365,722.0
21.6066,923.0
21.6767,535.0
21.7467,242.0
21.8168,383.0
21.8869,691.0
21.957,981.0
22.027,626.0
22.0971,197.0
22.1672,56.0
22.2373,26.0
22.3074,18.0
22.3775,14.0
22.4476,10.0
22.5177,13.0
22.5878,14.0
22.6579,8.0
22.728,10.0
22.7981,4.0
22.8682,15.0
22.9383,10.0
23.0084,5.0
23.0785,8.0
23.1487,4.0
23.2188,1.0
23.2889,11.0
23.359,12.0
23.4292,6.0
23.4993,7.0
23.5694,6.0
23.6395,7.0
23.7097,8.0
23.7798,1.0
23.85,2.0
23.9201,8.0
23.9903,7.0
24.0604,8.0
24.1306,8.0
24.2007,7.0
24.2709,18.0
24.341,21.0
24.4112,29.0
24.4814,35.0
24.5515,28.0
24.6217,11.0
24.6919,4.0
24.762,2.0
24.8322,8.0
24.9024,9.0
24.9726,8.0
25.0428,6.0
25.1129,8.0
25.1831,7.0
25.2533,4.0
25.3235,3.0
25.3937,6.0
25.4639,4.0
25.5341,3.0
25.6043,8.0
25.6745,10.0
25.7447,8.0
25.815,22.0
25.8852,45.0
25.9554,54.0
26.0256,53.0
26.0958,33.0
26.1661,8.0
26.2363,4.0
26.3065,6.0
26.3768,7.0
26.447,0.0
26.5172,3.0
26.5875,9.0
26.6577,5.0
26.728,8.0
26.7982,4.0
26.8685,7.0
26.9387,9.0
27.009,9.0
27.0793,11.0
27.1495,24.0
27.2198,28.0
27.2901,53.0
27.3603,38.0
27.4306,23.0
27.5009,10.0
27.5712,7.0
27.6415,4.0
27.7117,5.0
27.782,5.0
27.8523,6.0
27.9226,2.0
27.9929,5.0
28.0632,5.0
28.1335,6.0
28.2038,6.0
28.2742,6.0
28.3445,8.0
28.4148,8.0
28.4851,5.0
28.5554,6.0
28.6258,14.0
28.6961,21.0
28.7664,36.0
28.8368,40.0
28.9071,49.0
28.9774,27.0
29.0478,10.0
29.1181,6.0
29.1885,7.0
29.2588,6.0
29.3292,7.0
29.3995,3.0
29.4699,3.0
29.5403,4.0
29.6106,4.0
29.681,6.0
29.7514,6.0
29.8218,4.0
29.8921,5.0
29.9625,4.0
30.0329,3.0
30.1033,6.0
30.1737,3.0
30.2441,10.0
30.3145,7.0
30.3849,9.0
30.4553,10.0
30.5257,9.0
30.5961,8.0
30.6666,17.0
30.737,19.0
30.8074,55.0
30.8778,106.0
30.9482,140.0
31.0187,106.0
31.0891,55.0
31.1596,20.0
31.23,4.0
31.3004,10.0
31.3709,7.0
31.4413,7.0
31.5118,4.0
31.5823,5.0
31.6527,2.0
31.7232,6.0
31.7937,11.0
31.8641,7.0
31.9346,5.0
32.0051,10.0
32.0756,7.0
32.1461,9.0
32.2166,7.0
32.287,10.0
32.3575,17.0
32.428,26.0
32.4985,51.0
32.5691,126.0
32.6396,207.0
32.7101,164.0
32.7806,77.0
32.8511,26.0
32.9216,13.0
32.9922,9.0
33.0627,11.0
33.1332,12.0
33.2038,16.0
33.2743,32.0
33.3449,37.0
33.4154,52.0
33.486,51.0
33.5565,26.0
33.6271,9.0
33.6977,5.0
33.7682,7.0
33.8388,5.0
33.9094,7.0
33.9799,6.0
34.0505,4.0
34.1211,5.0
34.1917,7.0
34.2623,8.0
34.3329,5.0
34.4035,7.0
34.4741,6.0
34.5447,10.0
34.6153,8.0
34.6859,7.0
34.7566,7.0
34.8272,9.0
34.8978,17.0
34.9684,21.0
35.0391,32.0
35.1097,80.0
35.1804,121.0
35.251,151.0
35.3217,91.0
35.3923,46.0
35.463,20.0
35.5336,13.0
35.6043,15.0
35.675,36.0
35.7457,29.0
35.8163,42.0
35.887,26.0
35.9577,15.0
36.0284,4.0
36.0991,10.0
36.1698,24.0
36.2405,22.0
36.3112,21.0
36.3819,22.0
36.4526,19.0
36.5233,17.0
36.594,12.0
36.6648,21.0
36.7355,33.0
36.8062,34.0
36.877,19.0
36.9477,17.0
37.0185,7.0
37.0892,5.0
37.16,7.0
37.2307,6.0
37.3015,6.0
37.3723,10.0
37.443,6.0
37.5138,9.0
37.5846,7.0
37.6554,12.0
37.7262,9.0
37.7969,10.0
37.8677,9.0
37.9385,12.0
38.0094,13.0
38.0802,37.0
38.151,50.0
38.2218,57.0
38.2926,42.0
38.3634,26.0
38.4343,11.0
38.5051,8.0
38.5759,7.0
38.6468,9.0
38.7176,6.0
38.7885,5.0
38.8593,3.0
38.9302,10.0
39.0011,8.0
39.0719,6.0
39.1428,8.0
39.2137,7.0
39.2846,12.0
39.3555,12.0
39.4264,21.0
39.4972,36.0
39.5681,73.0
39.6391,106.0
39.71,91.0
39.7809,59.0
39.8518,23.0
39.9227,19.0
39.9936,32.0
40.0646,49.0
40.1355,54.0
40.2065,53.0
40.2774,32.0
40.3484,17.0
40.4193,8.0
40.4903,3.0
40.5612,3.0
40.6322,9.0
40.7032,7.0
40.7742,3.0
40.8451,10.0
40.9161,11.0
40.9871,2.0
41.0581,5.0
41.1291,11.0
41.2001,8.0
41.2711,3.0
41.3421,5.0
41.4132,4.0
41.4842,2.0
41.5552,4.0
41.6263,8.0
41.6973,5.0
41.7683,5.0
41.8394,6.0
41.9104,8.0
41.9815,8.0
42.0526,5.0
42.1236,5.0
42.1947,4.0
42.2658,6.0
42.3369,10.0
42.408,4.0
42.4791,9.0
42.5502,6.0
42.6213,10.0
42.6924,22.0
42.7635,26.0
42.8346,31.0
42.9057,25.0
42.9768,14.0
43.048,9.0
43.1191,3.0
43.1903,11.0
43.2614,5.0
43.3326,7.0
43.4037,9.0
43.4749,5.0
43.5461,5.0
43.6172,6.0
43.6884,5.0
43.7596,12.0
43.8308,12.0
43.902,32.0
43.9732,40.0
44.0444,53.0
44.1156,54.0
44.1868,41.0
44.258,24.0
44.3292,12.0
44.4005,6.0
44.4717,12.0
44.543,6.0
44.6142,13.0
44.6855,20.0
44.7567,24.0
44.828,26.0
44.8992,21.0
44.9705,8.0
45.0418,9.0
45.1131,10.0
45.1844,13.0
45.2557,28.0
45.327,36.0
45.3983,27.0
45.4696,21.0
45.5409,10.0
45.6122,13.0
45.6835,6.0
45.7549,6.0
45.8262,9.0
45.8975,8.0
45.9689,9.0
46.0403,10.0
46.1116,12.0
46.183,20.0
46.2543,16.0
46.3257,18.0
46.3971,20.0
46.4685,27.0
46.5399,18.0
46.6113,19.0
46.6827,11.0
46.7541,13.0
46.8255,5.0
46.8969,11.0
46.9684,8.0
47.0398,12.0
47.1112,18.0
47.1827,33.0
47.2541,54.0
47.3256,62.0
47.3971,60.0
47.4685,49.0
47.54,30.0
47.6115,15.0
47.683,12.0
47.7544,10.0
47.8259,5.0
47.8974,7.0
47.969,5.0
48.0405,9.0
48.112,6.0
48.1835,5.0
48.255,5.0
48.3266,9.0
48.3981,5.0
48.4697,8.0
48.5412,14.0
48.6128,13.0
48.6844,14.0
48.7559,8.0
48.8275,8.0
48.8991,5.0
48.9707,7.0
49.0423,6.0
49.1139,6.0
49.1855,13.0
49.2571,3.0
49.3287,7.0
49.4004,12.0
49.472,13.0
49.5436,13.0
49.6153,11.0
49.6869,12.0
49.7586,15.0
49.8303,11.0
49.9019,16.0
49.9736,13.0
50.0453,9.0
50.117,12.0
50.1887,17.0
50.2604,13.0
50.3321,14.0
50.4038,6.0
50.4755,8.0
50.5473,6.0
50.619,7.0
50.6907,6.0
50.7625,5.0
50.8342,5.0
50.906,6.0
50.9778,7.0
51.0495,6.0
51.1213,4.0
51.1931,4.0
51.2649,6.0
51.3367,8.0
51.4085,5.0
51.4803,6.0
51.5521,7.0
51.624,7.0
51.6958,3.0
51.7676,8.0
51.8395,8.0
51.9113,7.0
51.9832,5.0
52.0551,4.0
52.1269,5.0
52.1988,7.0
52.2707,7.0
52.3426,11.0
52.4145,12.0
52.4864,10.0
52.5583,16.0
52.6302,13.0
52.7021,4.0
52.7741,6.0
52.846,8.0
52.918,9.0
52.9899,9.0
53.0619,7.0
53.1338,10.0
53.2058,14.0
53.2778,19.0
53.3498,26.0
53.4218,25.0
53.4938,17.0
53.5658,13.0
53.6378,7.0
53.7098,5.0
53.7818,7.0
53.8539,10.0
53.9259,7.0
53.998,5.0
54.07,7.0
54.1421,5.0
54.2142,5.0
54.2862,7.0
54.3583,5.0
54.4304,12.0
54.5025,10.0
54.5746,10.0
54.6467,11.0
54.7189,12.0
54.791,10.0
54.8631,9.0
54.9353,6.0
55.0074,6.0
55.0796,6.0
55.1518,5.0
55.2239,7.0
55.2961,5.0
55.3683,7.0
55.4405,8.0
55.5127,9.0
55.5849,12.0
55.6571,15.0
55.7293,22.0
55.8016,51.0
55.8738,53.0
55.9461,38.0
56.0183,30.0
56.0906,24.0
56.1628,15.0
56.2351,19.0
56.3074,37.0
56.3797,45.0
56.452,51.0
56.5243,41.0
56.5966,29.0
56.6689,19.0
56.7413,11.0
56.8136,14.0
56.886,8.0
56.9583,7.0
57.0307,9.0
57.103,8.0
57.1754,9.0
57.2478,10.0
57.3202,13.0
57.3926,26.0
57.465,41.0
57.5374,53.0
57.6098,48.0
57.6823,26.0
57.7547,16.0
57.8272,10.0
57.8996,16.0
57.9721,12.0
58.0446,11.0
58.117,21.0
58.1895,18.0
58.262,22.0
58.3345,28.0
58.407,26.0
58.4796,41.0
58.5521,29.0
58.6246,33.0
58.6972,26.0
58.7697,16.0
58.8423,10.0
58.9148,12.0
58.9874,7.0
59.06,6.0
59.1326,9.0
59.2052,7.0
59.2778,9.0
59.3504,12.0
59.4231,7.0
59.4957,12.0
59.5683,12.0
59.641,4.0
59.7136,14.0
59.7863,11.0
59.859,16.0
59.9317,11.0
60.0044,7.0
60.0771,8.0
60.1498,9.0
60.2225,9.0
60.2952,6.0
60.368,10.0
60.4407,9.0
60.5135,16.0
60.5862,19.0
60.659,32.0
60.7318,59.0
60.8046,40.0
60.8774,45.0
60.9502,45.0
61.023,26.0
61.0958,21.0
61.1686,13.0
61.2415,17.0
61.3143,12.0
61.3872,9.0
61.4601,9.0
61.5329,8.0
61.6058,8.0
61.6787,6.0
61.7516,9.0
61.8245,10.0
61.8974,8.0
61.9704,8.0
62.0433,9.0
62.1163,10.0
62.1892,8.0
62.2622,11.0
62.3352,9.0
62.4081,9.0
62.4811,10.0
62.5541,8.0
62.6272,8.0
62.7002,7.0
62.7732,6.0
62.8462,8.0
62.9193,8.0
62.9923,5.0
63.0654,10.0
63.1385,6.0
63.2116,7.0
63.2847,8.0
63.3578,10.0
63.4309,9.0
63.504,12.0
63.5771,19.0
63.6503,15.0
63.7234,17.0
63.7966,10.0
63.8698,24.0
63.943,24.0
64.0161,26.0
64.0893,27.0
64.1625,16.0
64.2358,19.0
64.309,18.0
64.3822,14.0
64.4555,14.0
64.5287,9.0
64.602,8.0
64.6753,14.0
64.7486,6.0
64.8219,11.0
64.8952,7.0
64.9685,7.0
65.0418,7.0
65.1151,6.0
65.1885,9.0
65.2619,9.0
65.3352,6.0
65.4086,5.0
65.482,6.0
65.5554,11.0
65.6288,5.0
65.7022,5.0
65.7756,5.0
65.8491,9.0
65.9225,4.0
65.996,7.0
66.0694,7.0
66.1429,6.0
66.2164,8.0
66.2899,7.0
66.3634,7.0
66.4369,11.0
66.5104,12.0
66.584,17.0
66.6575,20.0
66.7311,17.0
66.8047,15.0
66.8782,16.0
66.9518,14.0
67.0254,11.0
67.099,11.0
67.1727,9.0
67.2463,6.0
67.3199,5.0
67.3936,8.0
67.4673,12.0
67.5409,6.0
67.6146,7.0
67.6883,11.0
67.762,9.0
67.8357,5.0
67.9095,9.0
67.9832,5.0
68.057,7.0
68.1307,10.0
68.2045,8.0
68.2783,14.0
68.3521,18.0
68.4259,16.0
68.4997,10.0
68.5735,14.0
68.6473,8.0
68.7212,10.0
68.7951,6.0
68.8689,10.0
68.9428,8.0
69.0167,8.0
69.0906,9.0
69.1645,9.0
69.2384,12.0
69.3124,7.0
69.3863,7.0
69.4603,6.0
69.5343,9.0
69.6082,14.0
69.6822,18.0
69.7562,21.0
69.8303,20.0
69.9043,20.0
69.9783,15.0
70.0524,15.0
70.1264,12.0
70.2005,12.0
70.2746,15.0
70.3487,13.0
70.4228,15.0
70.4969,11.0
70.5711,9.0
70.6452,6.0
70.7194,13.0
70.7935,12.0
70.8677,11.0
70.9419,10.0
71.0161,13.0
71.0903,10.0
71.1646,8.0
71.2388,8.0
71.313,12.0
71.3873,11.0
71.4616,13.0
71.5359,8.0
71.6102,7.0
71.6845,9.0
71.7588,6.0
71.8331,3.0
71.9075,7.0
71.9818,9.0
72.0562,9.0
72.1306,6.0
72.205,9.0
72.2794,12.0
72.3538,8.0
72.4283,8.0
72.5027,8.0
72.5772,11.0
72.6516,13.0
72.7261,10.0
72.8006,7.0
72.8751,7.0
72.9497,12.0
73.0242,7.0
73.0987,11.0
73.1733,8.0
73.2479,10.0
73.3224,7.0
73.397,10.0
73.4717,10.0
73.5463,8.0
73.6209,8.0
73.6956,11.0
73.7702,9.0
73.8449,5.0
73.9196,14.0
73.9943,15.0
74.069,21.0
74.1437,12.0
74.2185,16.0
74.2932,19.0
74.368,16.0
74.4428,12.0
74.5176,12.0
74.5924,11.0
74.6672,10.0
74.742,10.0
74.8169,5.0
74.8917,6.0
74.9666,7.0
75.0415,4.0
75.1164,10.0
75.1913,7.0
75.2662,15.0
75.3412,5.0
75.4161,6.0
75.4911,6.0
75.5661,5.0
75.6411,10.0
75.7161,8.0
75.7911,10.0
75.8661,7.0
75.9412,11.0
76.0162,8.0
76.0913,7.0
76.1664,15.0
76.2415,9.0
76.3166,9.0
76.3918,14.0
76.4669,8.0
76.5421,12.0
76.6172,9.0
76.6924,9.0
76.7676,10.0
76.8428,4.0
76.9181,13.0
76.9933,8.0
77.0686,11.0
77.1439,14.0
77.2192,10.0
77.2945,7.0
77.3698,10.0
77.4451,10.0
77.5205,10.0
77.5958,9.0
77.6712,11.0
77.7466,6.0
77.822,6.0
77.8974,9.0
77.9728,7.0
78.0483,5.0
78.1238,11.0
78.1992,16.0
78.2747,14.0
78.3502,14.0
78.4258,8.0
78.5013,9.0
78.5769,8.0
78.6524,8.0
78.728,10.0
78.8036,5.0
78.8792,7.0
78.9549,14.0
79.0305,5.0
79.1062,15.0
79.1818,11.0
79.2575,9.0
79.3332,11.0
79.409,20.0
79.4847,9.0
79.5604,18.0
79.6362,18.0
79.712,21.0
79.7878,21.0
79.8636,13.0
79.9394,10.0
80.0153,8.0
80.0912,17.0
80.167,7.0
80.2429,10.0
80.3188,15.0
80.3948,5.0
80.4707,3.0
80.5467,7.0
80.6226,11.0
80.6986,9.0
80.7746,10.0
80.8507,8.0
80.9267,9.0
81.0028,11.0
81.0788,11.0
81.1549,12.0
81.231,7.0
81.3071,3.0
81.3833,7.0
81.4594,9.0
81.5356,8.0
81.6118,7.0
81.688,7.0
81.7642,9.0
81.8404,10.0
81.9167,12.0
81.993,8.0
82.0693,8.0
82.1456,7.0
82.2219,13.0
82.2982,7.0
82.3746,7.0
82.4509,6.0
82.5273,12.0
82.6037,10.0
82.6802,7.0
82.7566,8.0
82.8331,7.0
82.9095,9.0
82.986,3.0
83.0625,11.0
83.1391,8.0
83.2156,9.0
83.2922,13.0
83.3687,10.0
83.4453,13.0
83.522,11.0
83.5986,18.0
83.6241,18.0